
time,ax,ay,az,Latitude,Longitude,Speed (m/s),
0.065137,0.0000,0.0000,0.0000,0.00000000,0.00000000,0.00000000,
0.065509,0.0000,0.0000,0.0000,55.75403669,48.74175348,0.00000000,
0.115960,0.0000,0.0000,0.0000,55.75403669,48.74175348,0.00000000,
0.116530,0.0000,0.0000,0.0000,55.75403669,48.74175348,0.00000000,
0.119270,0.0000,0.0000,0.0000,55.75403669,48.74175348,0.00000000,
0.119612,0.0000,0.0000,0.0000,55.75403669,48.74175348,0.00000000,
0.183393,0.0000,0.0000,0.0000,55.75403669,48.74175348,0.00000000,
0.184115,0.0000,0.0000,0.0000,55.75403669,48.74175348,0.00000000,
0.184602,0.0000,0.0000,0.0000,55.75403669,48.74175348,0.00000000,
0.191180,0.0000,0.0000,0.0000,55.75403669,48.74175348,0.00000000,
0.200395,0.0000,0.0000,0.0000,55.75403669,48.74175348,0.00000000,
0.201376,0.0000,0.0000,0.0000,55.75403669,48.74175348,0.00000000,
0.251399,0.0000,0.0000,0.0000,55.75403669,48.74175348,0.00000000,
0.252831,0.0000,0.0000,0.0000,55.75403669,48.74175348,0.00000000,
0.264476,0.0000,0.0000,0.0000,55.75403669,48.74175348,0.00000000,
0.265994,0.0000,0.0000,0.0000,55.75403669,48.74175348,0.00000000,
0.271300,0.3047,-0.2303,0.2309,55.75403669,48.74175348,0.00000000,
0.309798,0.3047,-0.2303,0.2309,55.75403669,48.74175348,0.00000000,
0.311434,0.3047,-0.2303,0.2309,55.75403669,48.74175348,0.00000000,
0.331523,0.3047,-0.2303,0.2309,55.75403669,48.74175348,0.00000000,
0.332862,0.3047,-0.2303,0.2309,55.75403669,48.74175348,0.00000000,
0.342462,0.3047,-0.2303,0.2309,55.75403669,48.74175348,0.00000000,
0.343786,-0.2396,-0.3862,0.0236,55.75403669,48.74175348,0.00000000,
0.384214,-0.2396,-0.3862,0.0236,55.75403669,48.74175348,0.00000000,
0.385587,-0.2396,-0.3862,0.0236,55.75403669,48.74175348,0.00000000,
0.402392,-0.2396,-0.3862,0.0236,55.75403669,48.74175348,0.00000000,
0.403617,-0.2396,-0.3862,0.0236,55.75403669,48.74175348,0.00000000,
0.413625,-0.6096,-0.3213,-0.2446,55.75403669,48.74175348,0.00000000,
0.451062,-0.6096,-0.3213,-0.2446,55.75403669,48.74175348,0.00000000,
0.452290,-0.6096,-0.3213,-0.2446,55.75403669,48.74175348,0.00000000,
0.471936,-0.6096,-0.3213,-0.2446,55.75403669,48.74175348,0.00000000,
0.473034,-0.6096,-0.3213,-0.2446,55.75403669,48.74175348,0.00000000,
0.481873,-0.6096,-0.3213,-0.2446,55.75403669,48.74175348,0.00000000,
0.483083,-0.5942,-0.3396,-0.7556,55.75403669,48.74175348,0.00000000,
0.515774,-0.5942,-0.3396,-0.7556,55.75403669,48.74175348,0.00000000,
0.542052,-0.5942,-0.3396,-0.7556,55.75403669,48.74175348,0.00000000,
0.543247,-0.5942,-0.3396,-0.7556,55.75403669,48.74175348,0.00000000,
0.544079,-0.5942,-0.3396,-0.7556,55.75403669,48.74175348,0.00000000,
0.552966,-0.4311,-0.2282,-0.2895,55.75403669,48.74175348,0.00000000,
0.583109,-0.4311,-0.2282,-0.2895,55.75403669,48.74175348,0.00000000,
0.584379,-0.4311,-0.2282,-0.2895,55.75403669,48.74175348,0.00000000,
0.612721,-0.4311,-0.2282,-0.2895,55.75403669,48.74175348,0.00000000,
0.613495,-0.4311,-0.2282,-0.2895,55.75403669,48.74175348,0.00000000,
0.622786,-1.1769,-0.2879,0.3197,55.75403669,48.74175348,0.00000000,
0.623882,-1.1769,-0.2879,0.3197,55.75403669,48.74175348,0.00000000,
0.650405,-1.1769,-0.2879,0.3197,55.75403669,48.74175348,0.00000000,
0.683395,-1.1769,-0.2879,0.3197,55.75403669,48.74175348,0.00000000,
0.684153,-1.1769,-0.2879,0.3197,55.75403669,48.74175348,0.00000000,
0.684583,-1.1769,-0.2879,0.3197,55.75403669,48.74175348,0.00000000,
0.693099,-0.7284,0.2027,-0.0739,55.75403669,48.74175348,0.00000000,
0.716884,-0.7284,0.2027,-0.0739,55.75403669,48.74175348,0.00000000,
0.753193,-0.7284,0.2027,-0.0739,55.75403669,48.74175348,0.00000000,
0.754249,-0.7284,0.2027,-0.0739,55.75403669,48.74175348,0.00000000,
0.754843,-0.7284,0.2027,-0.0739,55.75403669,48.74175348,0.00000000,
0.763410,0.0432,0.2853,-0.1904,55.75403669,48.74175348,0.00000000,
0.765025,0.0432,0.2853,-0.1904,55.75403669,48.74175348,0.00000000,
0.784114,0.0432,0.2853,-0.1904,55.75403669,48.74175348,0.00000000,
0.809183,0.0432,0.2853,-0.1904,55.75403669,48.74175348,0.00000000,
0.825456,0.0432,0.2853,-0.1904,55.75403669,48.74175348,0.00000000,
0.826431,0.0432,0.2853,-0.1904,55.75403669,48.74175348,0.00000000,
0.833175,-0.2910,0.5420,-0.7855,55.75403669,48.74175348,0.00000000,
0.849374,-0.2910,0.5420,-0.7855,55.75403669,48.74175348,0.00000000,
0.893911,-0.2910,0.5420,-0.7855,55.75403669,48.74175348,0.00000000,
0.895133,-0.2910,0.5420,-0.7855,55.75403669,48.74175348,0.00000000,
0.895936,-0.2910,0.5420,-0.7855,55.75403669,48.74175348,0.00000000,
0.903833,-0.8379,0.4387,0.1733,55.75403669,48.74175348,0.00000000,
0.905755,-0.8379,0.4387,0.1733,55.75403669,48.74175348,0.00000000,
0.964760,-0.8379,0.4387,0.1733,55.75403669,48.74175348,0.00000000,
0.966289,-0.8379,0.4387,0.1733,55.75403669,48.74175348,0.00000000,
0.967133,-0.8379,0.4387,0.1733,55.75403669,48.74175348,0.00000000,
0.967812,-0.8379,0.4387,0.1733,55.75403669,48.74175348,0.00000000,
0.973441,-0.9092,0.2815,0.9833,55.75403669,48.74175348,0.00000000,
1.034149,-0.9092,0.2815,0.9833,55.75403669,48.74175348,0.00000000,
1.035145,-0.9092,0.2815,0.9833,55.75403669,48.74175348,0.00000000,
1.035767,-0.9092,0.2815,0.9833,55.75403669,48.74175348,0.00000000,
1.036308,-0.9092,0.2815,0.9833,55.75403669,48.74175348,0.00000000,
1.044425,-0.4249,0.3689,0.6181,55.75403669,48.74175348,0.00000000,
1.046507,-0.4249,0.3689,0.6181,55.75403669,48.74175348,0.00000000,
1.067642,-0.4249,0.3689,0.6181,55.75403669,48.74175348,0.00000000,
1.104527,-0.4249,0.3689,0.6181,55.75403669,48.74175348,0.00000000,
1.105709,-0.4249,0.3689,0.6181,55.75403669,48.74175348,0.00000000,
1.106430,-0.4249,0.3689,0.6181,55.75403669,48.74175348,0.00000000,
1.114644,-0.1815,-0.1860,0.1738,55.75403669,48.74175348,0.00000000,
1.175018,-0.1815,-0.1860,0.1738,55.75403669,48.74175348,0.00000000,
1.176183,-0.1815,-0.1860,0.1738,55.75403669,48.74175348,0.00000000,
1.176896,-0.1815,-0.1860,0.1738,55.75403669,48.74175348,0.00000000,
1.177588,-0.1815,-0.1860,0.1738,55.75403669,48.74175348,0.00000000,
1.188069,-0.0557,-0.4903,0.2326,55.75403669,48.74175348,0.00000000,
1.189850,-0.0557,-0.4903,0.2326,55.75403669,48.74175348,0.00000000,
1.246117,-0.0557,-0.4903,0.2326,55.75403669,48.74175348,0.00000000,
1.247738,-0.0557,-0.4903,0.2326,55.75403669,48.74175348,0.00000000,
1.248460,-0.0557,-0.4903,0.2326,55.75403669,48.74175348,0.00000000,
1.249111,-0.0557,-0.4903,0.2326,55.75403669,48.74175348,0.00000000,
1.254099,1.0821,-0.6193,0.8848,55.75403669,48.74175348,0.00000000,
1.308969,1.0821,-0.6193,0.8848,55.75403669,48.74175348,0.00000000,
1.310312,1.0821,-0.6193,0.8848,55.75403669,48.74175348,0.00000000,
1.311602,1.0821,-0.6193,0.8848,55.75403669,48.74175348,0.00000000,
1.314898,1.0821,-0.6193,0.8848,55.75403669,48.74175348,0.00000000,
1.326712,0.8503,-0.7382,-1.4085,55.75403669,48.74175348,0.00000000,
1.328621,0.8503,-0.7382,-1.4085,55.75403669,48.74175348,0.00000000,
1.384215,0.8503,-0.7382,-1.4085,55.75403669,48.74175348,0.00000000,
1.385528,0.8503,-0.7382,-1.4085,55.75403669,48.74175348,0.00000000,
1.386475,0.8503,-0.7382,-1.4085,55.75403669,48.74175348,0.00000000,
1.387278,0.8503,-0.7382,-1.4085,55.75403669,48.74175348,0.00000000,
1.396218,0.6247,-0.4079,-1.0142,55.75403669,48.74175348,0.00000000,
1.449832,0.6247,-0.4079,-1.0142,55.75403669,48.74175348,0.00000000,
1.451373,0.6247,-0.4079,-1.0142,55.75403669,48.74175348,0.00000000,
1.452260,0.6247,-0.4079,-1.0142,55.75403669,48.74175348,0.00000000,
1.456198,0.6247,-0.4079,-1.0142,55.75403669,48.74175348,0.00000000,
1.467693,0.6247,-0.4079,-1.0142,55.75403669,48.74175348,0.00000000,
1.468924,0.6814,0.0681,0.8313,55.75403669,48.74175348,0.00000000,
1.516119,0.6814,0.0681,0.8313,55.75403669,48.74175348,0.00000000,
1.517323,0.6814,0.0681,0.8313,55.75403669,48.74175348,0.00000000,
1.527516,0.6814,0.0681,0.8313,55.75403669,48.74175348,0.00000000,
1.528684,0.6814,0.0681,0.8313,55.75403669,48.74175348,0.00000000,
1.536878,0.8514,0.2138,-0.1948,55.75403669,48.74175348,0.00000000,
1.559654,0.8514,0.2138,-0.1948,55.75403669,48.74175348,0.00000000,
1.567243,0.8514,0.2138,-0.1948,55.75403669,48.74175348,0.00000000,
1.598934,0.8514,0.2138,-0.1948,55.75403669,48.74175348,0.00000000,
1.600345,0.8514,0.2138,-0.1948,55.75403669,48.74175348,0.00000000,
1.607244,0.8514,0.2138,-0.1948,55.75403669,48.74175348,0.00000000,
1.608499,0.4660,0.2782,-1.0043,55.75403669,48.74175348,0.00000000,
1.649093,0.4660,0.2782,-1.0043,55.75403669,48.74175348,0.00000000,
1.650455,0.4660,0.2782,-1.0043,55.75403669,48.74175348,0.00000000,
1.667255,0.4660,0.2782,-1.0043,55.75403669,48.74175348,0.00000000,
1.668549,0.4660,0.2782,-1.0043,55.75403669,48.74175348,0.00000000,
1.677286,0.0055,0.3086,-0.3482,55.75403669,48.74175348,0.00000000,
1.718342,0.0055,0.3086,-0.3482,55.75403669,48.74175348,0.00000000,
1.719556,0.0055,0.3086,-0.3482,55.75403669,48.74175348,0.00000000,
1.738498,0.0055,0.3086,-0.3482,55.75403669,48.74175348,0.00000000,
1.739911,0.0055,0.3086,-0.3482,55.75403669,48.74175348,0.00000000,
1.748617,0.2907,0.5269,0.1954,55.75403669,48.74175348,0.00000000,
1.750383,0.2907,0.5269,0.1954,55.75403669,48.74175348,0.00000000,
1.783705,0.2907,0.5269,0.1954,55.75403669,48.74175348,0.00000000,
1.812557,0.2907,0.5269,0.1954,55.75403669,48.74175348,0.00000000,
1.813944,0.2907,0.5269,0.1954,55.75403669,48.74175348,0.00000000,
1.814884,0.2907,0.5269,0.1954,55.75403669,48.74175348,0.00000000,
1.819340,0.5557,0.6987,0.1307,55.75403669,48.74175348,0.00000000,
1.850160,0.5557,0.6987,0.1307,55.75403669,48.74175348,0.00000000,
1.851626,0.5557,0.6987,0.1307,55.75403669,48.74175348,0.00000000,
1.877893,0.5557,0.6987,0.1307,55.75403669,48.74175348,0.00000000,
1.878995,0.5557,0.6987,0.1307,55.75403669,48.74175348,0.00000000,
1.889981,0.5557,0.6987,0.1307,55.75403669,48.74175348,0.00000000,
1.891252,0.4238,0.6354,0.1643,55.75403669,48.74175348,0.00000000,
1.917960,0.4238,0.6354,0.1643,55.75403669,48.74175348,0.00000000,
1.949648,0.4238,0.6354,0.1643,55.75403669,48.74175348,0.00000000,
1.951421,0.4238,0.6354,0.1643,55.75403669,48.74175348,0.00000000,
1.952403,0.4238,0.6354,0.1643,55.75403669,48.74175348,0.00000000,
1.959167,0.2779,0.6133,-0.1900,55.75403669,48.74175348,0.00000000,
1.983224,0.2779,0.6133,-0.1900,55.75403669,48.74175348,0.00000000,
2.018486,0.2779,0.6133,-0.1900,55.75403669,48.74175348,0.00000000,
2.019494,0.2779,0.6133,-0.1900,55.75403669,48.74175348,0.00000000,
2.020170,0.2779,0.6133,-0.1900,55.75403669,48.74175348,0.00000000,
2.033144,0.3451,0.4671,0.0356,55.75403669,48.74175348,0.00000000,
2.034669,0.3451,0.4671,0.0356,55.75403669,48.74175348,0.00000000,
2.049444,0.3451,0.4671,0.0356,55.75403669,48.74175348,0.00000000,
2.089428,0.3451,0.4671,0.0356,55.75403669,48.74175348,0.00000000,
2.090096,0.3451,0.4671,0.0356,55.75403669,48.74175348,0.00000000,
2.090503,0.3451,0.4671,0.0356,55.75403669,48.74175348,0.00000000,
2.098143,0.3537,-0.1817,0.1472,55.75403669,48.74175348,0.00000000,
2.117124,0.3537,-0.1817,0.1472,55.75403669,48.74175348,0.00000000,
2.160096,0.3537,-0.1817,0.1472,55.75403669,48.74175348,0.00000000,
2.161567,0.3537,-0.1817,0.1472,55.75403669,48.74175348,0.00000000,
2.162370,0.3537,-0.1817,0.1472,55.75403669,48.74175348,0.00000000,
2.170848,0.3537,-0.1817,0.1472,55.75403669,48.74175348,0.00000000,
2.172026,-0.6918,-0.4519,-0.6936,55.75403669,48.74175348,0.00000000,
2.207791,-0.6918,-0.4519,-0.6936,55.75403669,48.74175348,0.00000000,
2.232040,-0.6918,-0.4519,-0.6936,55.75403669,48.74175348,0.00000000,
2.233468,-0.6918,-0.4519,-0.6936,55.75403669,48.74175348,0.00000000,
2.234354,-0.6918,-0.4519,-0.6936,55.75403669,48.74175348,0.00000000,
2.241030,-0.8139,-0.9009,0.1350,55.75403669,48.74175348,0.00000000,
2.301394,-0.8139,-0.9009,0.1350,55.75403669,48.74175348,0.00000000,
2.302309,-0.8139,-0.9009,0.1350,55.75403669,48.74175348,0.00000000,
2.302653,-0.8139,-0.9009,0.1350,55.75403669,48.74175348,0.00000000,
2.302929,-0.8139,-0.9009,0.1350,55.75403669,48.74175348,0.00000000,
2.311332,-0.8139,-0.9009,0.1350,55.75403669,48.74175348,0.00000000,
2.312410,-0.6519,-0.4306,-0.3763,55.75403669,48.74175348,0.00000000,
2.373651,-0.6519,-0.4306,-0.3763,55.75403669,48.74175348,0.00000000,
2.374347,-0.6519,-0.4306,-0.3763,55.75403669,48.74175348,0.00000000,
2.374793,-0.6519,-0.4306,-0.3763,55.75403669,48.74175348,0.00000000,
2.375174,-0.6519,-0.4306,-0.3763,55.75403669,48.74175348,0.00000000,
2.382758,-0.5693,-0.2276,0.7242,55.75403669,48.74175348,0.00000000,
2.441756,-0.5693,-0.2276,0.7242,55.75403669,48.74175348,0.00000000,
2.442995,-0.5693,-0.2276,0.7242,55.75403669,48.74175348,0.00000000,
2.443659,-0.5693,-0.2276,0.7242,55.75403669,48.74175348,0.00000000,
2.444328,-0.5693,-0.2276,0.7242,55.75403669,48.74175348,0.00000000,
2.451926,-1.0829,-0.3147,0.4135,55.75403669,48.74175348,0.00000000,
2.453825,-1.0829,-0.3147,0.4135,55.75403669,48.74175348,0.00000000,
2.512977,-1.0829,-0.3147,0.4135,55.75403669,48.74175348,0.00000000,
2.514670,-1.0829,-0.3147,0.4135,55.75403669,48.74175348,0.00000000,
2.515473,-1.0829,-0.3147,0.4135,55.75403669,48.74175348,0.00000000,
2.516184,-1.0829,-0.3147,0.4135,55.75403669,48.74175348,0.00000000,
2.522122,-0.7442,0.1093,-0.5622,55.75403669,48.74175348,0.00000000,
2.559838,-0.7442,0.1093,-0.5622,55.75403669,48.74175348,0.00000000,
2.561406,-0.7442,0.1093,-0.5622,55.75403669,48.74175348,0.00000000,
2.583025,-0.7442,0.1093,-0.5622,55.75403669,48.74175348,0.00000000,
2.584278,-0.7442,0.1093,-0.5622,55.75403669,48.74175348,0.00000000,
2.593932,-0.1923,0.2589,-0.0384,55.75403669,48.74175348,0.00000000,
2.595965,-0.1923,0.2589,-0.0384,55.75403669,48.74175348,0.00000000,
2.650000,-0.1923,0.2589,-0.0384,55.75403669,48.74175348,0.00000000,
2.651764,-0.1923,0.2589,-0.0384,55.75403669,48.74175348,0.00000000,
2.652654,-0.1923,0.2589,-0.0384,55.75403669,48.74175348,0.00000000,
2.653295,-0.1923,0.2589,-0.0384,55.75403669,48.74175348,0.00000000,
2.662587,-0.5854,0.1660,-0.1262,55.75403669,48.74175348,0.00000000,
2.716371,-0.5854,0.1660,-0.1262,55.75403669,48.74175348,0.00000000,
2.718586,-0.5854,0.1660,-0.1262,55.75403669,48.74175348,0.00000000,
2.719768,-0.5854,0.1660,-0.1262,55.75403669,48.74175348,0.00000000,
2.724495,-0.5854,0.1660,-0.1262,55.75403669,48.74175348,0.00000000,
2.735320,-0.5854,0.1660,-0.1262,55.75403669,48.74175348,0.00000000,
2.736293,-0.8966,-0.0937,0.5951,55.75403669,48.74175348,0.00000000,
2.784478,-0.8966,-0.0937,0.5951,55.75403669,48.74175348,0.00000000,
2.785569,-0.8966,-0.0937,0.5951,55.75403669,48.74175348,0.00000000,
2.793802,-0.8966,-0.0937,0.5951,55.75403669,48.74175348,0.00000000,
2.795509,-0.8966,-0.0937,0.5951,55.75403669,48.74175348,0.00000000,
2.802683,-0.3810,0.0814,0.9828,55.75403669,48.74175348,0.00000000,
2.849738,-0.3810,0.0814,0.9828,55.75403669,48.74175348,0.00000000,
2.851135,-0.3810,0.0814,0.9828,55.75403669,48.74175348,0.00000000,
2.863431,-0.3810,0.0814,0.9828,55.75403669,48.74175348,0.00000000,
2.864914,-0.3810,0.0814,0.9828,55.75403669,48.74175348,0.00000000,
2.874988,-0.3810,0.0814,0.9828,55.75403669,48.74175348,0.00000000,
2.876225,-0.1552,-0.1026,0.8759,55.75403669,48.74175348,0.00000000,
2.916784,-0.1552,-0.1026,0.8759,55.75403669,48.74175348,0.00000000,
2.917758,-0.1552,-0.1026,0.8759,55.75403669,48.74175348,0.00000000,
2.934406,-0.1552,-0.1026,0.8759,55.75403669,48.74175348,0.00000000,
2.935573,-0.1552,-0.1026,0.8759,55.75403669,48.74175348,0.00000000,
2.944387,0.1529,-0.5882,1.2224,55.75403669,48.74175348,0.00000000,
2.983974,0.1529,-0.5882,1.2224,55.75403669,48.74175348,0.00000000,
2.985271,0.1529,-0.5882,1.2224,55.75403669,48.74175348,0.00000000,
3.004332,0.1529,-0.5882,1.2224,55.75403669,48.74175348,0.00000000,
3.006185,0.1529,-0.5882,1.2224,55.75403669,48.74175348,0.00000000,
3.015472,0.1529,-0.5882,1.2224,55.75403669,48.74175348,0.00000000,
3.017511,0.0365,-0.5341,-1.4730,55.75403669,48.74175348,0.00000000,
3.048419,0.0365,-0.5341,-1.4730,55.75403669,48.74175348,0.00000000,
3.059920,0.0365,-0.5341,-1.4730,55.75403669,48.74175348,0.00000000,
3.073639,0.0365,-0.5341,-1.4730,55.75403669,48.74175348,0.00000000,
3.074482,0.0365,-0.5341,-1.4730,55.75403669,48.74175348,0.00000000,
3.083219,0.1392,-0.6023,-0.3132,55.75403669,48.74175348,0.00000000,
3.115954,0.1392,-0.6023,-0.3132,55.75403669,48.74175348,0.00000000,
3.116727,0.1392,-0.6023,-0.3132,55.75403669,48.74175348,0.00000000,
3.145429,0.1392,-0.6023,-0.3132,55.75403669,48.74175348,0.00000000,
3.146606,0.1392,-0.6023,-0.3132,55.75403669,48.74175348,0.00000000,
3.154995,0.1318,-0.3358,0.1481,55.75403669,48.74175348,0.00000000,
3.156522,0.1318,-0.3358,0.1481,55.75403669,48.74175348,0.00000000,
3.183150,0.1318,-0.3358,0.1481,55.75403669,48.74175348,0.00000000,
3.216019,0.1318,-0.3358,0.1481,55.75403669,48.74175348,0.00000000,
3.217196,0.1318,-0.3358,0.1481,55.75403669,48.74175348,0.00000000,
3.217878,0.1318,-0.3358,0.1481,55.75403669,48.74175348,0.00000000,
3.225394,0.4083,-0.0919,-0.6555,55.75403669,48.74175348,0.00000000,
3.249667,0.4083,-0.0919,-0.6555,55.75403669,48.74175348,0.00000000,
3.275888,0.4083,-0.0919,-0.6555,55.75403669,48.74175348,0.00000000,
3.278072,0.4083,-0.0919,-0.6555,55.75403669,48.74175348,0.00000000,
3.284697,0.4083,-0.0919,-0.6555,55.75403669,48.74175348,0.00000000,
3.296596,0.6072,-0.1333,-0.6636,55.75403669,48.74175348,0.00000000,
3.298374,0.6072,-0.1333,-0.6636,55.75403669,48.74175348,0.00000000,
3.316896,0.6072,-0.1333,-0.6636,55.75403669,48.74175348,0.00000000,
3.356009,0.6072,-0.1333,-0.6636,55.75403669,48.74175348,0.00000000,
3.357193,0.6072,-0.1333,-0.6636,55.75403669,48.74175348,0.00000000,
3.357852,0.6072,-0.1333,-0.6636,55.75403669,48.74175348,0.00000000,
3.365428,0.3842,0.0473,-0.5580,55.75403669,48.74175348,0.00000000,
3.383461,0.3842,0.0473,-0.5580,55.75403669,48.74175348,0.00000000,
3.430103,0.3842,0.0473,-0.5580,55.75403669,48.74175348,0.00000000,
3.432361,0.3842,0.0473,-0.5580,55.75403669,48.74175348,0.00000000,
3.433091,0.3842,0.0473,-0.5580,55.75403669,48.74175348,0.00000000,
3.435908,0.5150,0.3045,0.2292,55.75403669,48.74175348,0.00000000,
3.437412,0.5150,0.3045,0.2292,55.75403669,48.74175348,0.00000000,
3.496755,0.5150,0.3045,0.2292,55.75403669,48.74175348,0.00000000,
3.498351,0.5150,0.3045,0.2292,55.75403669,48.74175348,0.00000000,
3.499002,0.5150,0.3045,0.2292,55.75403669,48.74175348,0.00000000,
3.499800,0.5150,0.3045,0.2292,55.75403669,48.74175348,0.00000000,
3.509454,0.6943,0.6316,0.0835,55.75403669,48.74175348,0.00000000,
3.517142,0.6943,0.6316,0.0835,55.75403669,48.74175348,0.00000000,
3.559159,0.6943,0.6316,0.0835,55.75403669,48.74175348,0.00000000,
3.560811,0.6943,0.6316,0.0835,55.75403669,48.74175348,0.00000000,
3.566623,0.6943,0.6316,0.0835,55.75403669,48.74175348,0.00000000,
3.577193,0.6117,0.2832,0.4109,55.75403669,48.74175348,0.00000000,
3.579790,0.6117,0.2832,0.4109,55.75403669,48.74175348,0.00000000,
3.637749,0.6117,0.2832,0.4109,55.75403669,48.74175348,0.00000000,
3.639669,0.6117,0.2832,0.4109,55.75403669,48.74175348,0.00000000,
3.640509,0.6117,0.2832,0.4109,55.75403669,48.74175348,0.00000000,
3.641401,0.6117,0.2832,0.4109,55.75403669,48.74175348,0.00000000,
3.647258,0.1077,0.1781,-0.2564,55.75403669,48.74175348,0.00000000,
3.708272,0.1077,0.1781,-0.2564,55.75403669,48.74175348,0.00000000,
3.710192,0.1077,0.1781,-0.2564,55.75403669,48.74175348,0.00000000,
3.711103,0.1077,0.1781,-0.2564,55.75403669,48.74175348,0.00000000,
3.711978,0.1077,0.1781,-0.2564,55.75403669,48.74175348,0.00000000,
3.717818,0.2444,0.3235,-0.1163,55.75403669,48.74175348,0.00000000,
3.719460,0.2444,0.3235,-0.1163,55.75403669,48.74175348,0.00000000,
3.778503,0.2444,0.3235,-0.1163,55.75403669,48.74175348,0.00000000,
3.780472,0.2444,0.3235,-0.1163,55.75403669,48.74175348,0.00000000,
3.781589,0.2444,0.3235,-0.1163,55.75403669,48.74175348,0.00000000,
3.782492,0.2444,0.3235,-0.1163,55.75403669,48.74175348,0.00000000,
3.789665,-0.0144,-0.4975,0.6135,55.75403669,48.74175348,0.00000000,
3.809563,-0.0144,-0.4975,0.6135,55.75403669,48.74175348,0.00000000,
3.821343,-0.0144,-0.4975,0.6135,55.75403669,48.74175348,0.00000000,
3.848280,-0.0144,-0.4975,0.6135,55.75403669,48.74175348,0.00000000,
3.850366,-0.0144,-0.4975,0.6135,55.75403669,48.74175348,0.00000000,
3.858004,-2.1824,-1.1970,0.2804,55.75403669,48.74175348,0.00000000,
3.860963,-2.1824,-1.1970,0.2804,55.75403669,48.74175348,0.00000000,
3.917680,-2.1824,-1.1970,0.2804,55.75403669,48.74175348,0.00000000,
3.919909,-2.1824,-1.1970,0.2804,55.75403669,48.74175348,0.00000000,
3.921589,-2.1824,-1.1970,0.2804,55.75403669,48.74175348,0.00000000,
3.922378,-2.1824,-1.1970,0.2804,55.75403669,48.74175348,0.00000000,
3.928314,0.4749,-0.4809,0.3183,55.75403669,48.74175348,0.00000000,
3.984279,0.4749,-0.4809,0.3183,55.75403669,48.74175348,0.00000000,
3.986227,0.4749,-0.4809,0.3183,55.75403669,48.74175348,0.00000000,
3.987103,0.4749,-0.4809,0.3183,55.75403669,48.74175348,0.00000000,
3.987886,0.4749,-0.4809,0.3183,55.75403669,48.74175348,0.00000000,
3.999250,0.4749,-0.4809,0.3183,55.75403669,48.74175348,0.00000000,
4.000310,0.1616,-0.3795,0.2701,55.75403669,48.74175348,0.00000000,
4.041494,0.1616,-0.3795,0.2701,55.75403669,48.74175348,0.00000000,
4.043429,0.1616,-0.3795,0.2701,55.75403669,48.74175348,0.00000000,
4.061647,0.1616,-0.3795,0.2701,55.75403669,48.74175348,0.00000000,
4.063755,0.1616,-0.3795,0.2701,55.75403669,48.74175348,0.00000000,
4.070194,-0.9284,-0.5062,-0.5996,55.75403669,48.74175348,0.00000000,
4.116692,-0.9284,-0.5062,-0.5996,55.75403669,48.74175348,0.00000000,
4.118309,-0.9284,-0.5062,-0.5996,55.75403669,48.74175348,0.00000000,
4.129757,-0.9284,-0.5062,-0.5996,55.75403669,48.74175348,0.00000000,
4.131088,-0.9284,-0.5062,-0.5996,55.75403669,48.74175348,0.00000000,
4.140069,-0.4590,-0.2291,0.0156,55.75403669,48.74175348,0.00000000,
4.142849,-0.4590,-0.2291,0.0156,55.75403669,48.74175348,0.00000000,
4.183973,-0.4590,-0.2291,0.0156,55.75403669,48.74175348,0.00000000,
4.185784,-0.4590,-0.2291,0.0156,55.75403669,48.74175348,0.00000000,
4.199656,-0.4590,-0.2291,0.0156,55.75403669,48.74175348,0.00000000,
4.201053,-0.4590,-0.2291,0.0156,55.75403669,48.74175348,0.00000000,
4.209606,-0.2884,0.3935,-0.9433,55.75403669,48.74175348,0.00000000,
4.223636,-0.2884,0.3935,-0.9433,55.75403669,48.74175348,0.00000000,
4.249228,-0.2884,0.3935,-0.9433,55.75403669,48.74175348,0.00000000,
4.269200,-0.2884,0.3935,-0.9433,55.75403669,48.74175348,0.00000000,
4.271000,-0.2884,0.3935,-0.9433,55.75403669,48.74175348,0.00000000,
4.280121,-0.2884,0.3935,-0.9433,55.75403669,48.74175348,0.00000000,
4.282217,-1.4829,0.6182,-0.4602,55.75403669,48.74175348,0.00000000,
4.309886,-1.4829,0.6182,-0.4602,55.75403669,48.74175348,0.00000000,
4.341975,-1.4829,0.6182,-0.4602,55.75403669,48.74175348,0.00000000,
4.343743,-1.4829,0.6182,-0.4602,55.75403669,48.74175348,0.00000000,
4.344435,-1.4829,0.6182,-0.4602,55.75403669,48.74175348,0.00000000,
4.351227,-0.6318,0.5692,1.4097,55.75403669,48.74175348,0.00000000,
4.382608,-0.6318,0.5692,1.4097,55.75403669,48.74175348,0.00000000,
4.384362,-0.6318,0.5692,1.4097,55.75403669,48.74175348,0.00000000,
4.412042,-0.6318,0.5692,1.4097,55.75403669,48.74175348,0.00000000,
4.414086,-0.6318,0.5692,1.4097,55.75403669,48.74175348,0.00000000,
4.422286,-0.7259,0.1407,0.1695,55.75403669,48.74175348,0.00000000,
4.424115,-0.7259,0.1407,0.1695,55.75403669,48.74175348,0.00000000,
4.449732,-0.7259,0.1407,0.1695,55.75403669,48.74175348,0.00000000,
4.482249,-0.7259,0.1407,0.1695,55.75403669,48.74175348,0.00000000,
4.484142,-0.7259,0.1407,0.1695,55.75403669,48.74175348,0.00000000,
4.484985,-0.7259,0.1407,0.1695,55.75403669,48.74175348,0.00000000,
4.494446,0.7789,-0.1281,1.1748,55.75403669,48.74175348,0.00000000,
4.516587,0.7789,-0.1281,1.1748,55.75403669,48.74175348,0.00000000,
4.553100,0.7789,-0.1281,1.1748,55.75403669,48.74175348,0.00000000,
4.554824,0.7789,-0.1281,1.1748,55.75403669,48.74175348,0.00000000,
4.556144,0.7789,-0.1281,1.1748,55.75403669,48.74175348,0.00000000,
4.564425,0.7789,-0.1281,1.1748,55.75403669,48.74175348,0.00000000,
4.565930,0.6826,-0.2907,-0.6163,55.75403669,48.74175348,0.00000000,
4.582476,0.6826,-0.2907,-0.6163,55.75403669,48.74175348,0.00000000,
4.622863,0.6826,-0.2907,-0.6163,55.75403669,48.74175348,0.00000000,
4.625118,0.6826,-0.2907,-0.6163,55.75403669,48.74175348,0.00000000,
4.625971,0.6826,-0.2907,-0.6163,55.75403669,48.74175348,0.00000000,
4.632083,0.3946,-0.1916,-0.9273,55.75403669,48.74175348,0.00000000,
4.649482,0.3946,-0.1916,-0.9273,55.75403669,48.74175348,0.00000000,
4.694007,0.3946,-0.1916,-0.9273,55.75403669,48.74175348,0.00000000,
4.695524,0.3946,-0.1916,-0.9273,55.75403669,48.74175348,0.00000000,
4.696166,0.3946,-0.1916,-0.9273,55.75403669,48.74175348,0.00000000,
4.703435,0.3091,0.0228,0.1363,55.75403669,48.74175348,0.00000000,
4.705124,0.3091,0.0228,0.1363,55.75403669,48.74175348,0.00000000,
4.763641,0.3091,0.0228,0.1363,55.75403669,48.74175348,0.00000000,
4.765473,0.3091,0.0228,0.1363,55.75403669,48.74175348,0.00000000,
4.766175,0.3091,0.0228,0.1363,55.75403669,48.74175348,0.00000000,
4.766781,0.3091,0.0228,0.1363,55.75403669,48.74175348,0.00000000,
4.773487,0.1683,0.4202,-1.2762,55.75403669,48.74175348,0.00000000,
4.783370,0.1683,0.4202,-1.2762,55.75403669,48.74175348,0.00000000,
4.810928,0.1683,0.4202,-1.2762,55.75403669,48.74175348,0.00000000,
4.834075,0.1683,0.4202,-1.2762,55.75403669,48.74175348,0.00000000,
4.835849,0.1683,0.4202,-1.2762,55.75403669,48.74175348,0.00000000,
4.846351,0.3021,0.7571,-1.4737,55.75403669,48.74175348,0.00000000,
4.849299,0.3021,0.7571,-1.4737,55.75403669,48.74175348,0.00000000,
4.904184,0.3021,0.7571,-1.4737,55.75403669,48.74175348,0.00000000,
4.906163,0.3021,0.7571,-1.4737,55.75403669,48.74175348,0.00000000,
4.907075,0.3021,0.7571,-1.4737,55.75403669,48.74175348,0.00000000,
4.907838,0.3021,0.7571,-1.4737,55.75403669,48.74175348,0.00000000,
4.913517,0.1577,1.0028,-0.6275,55.75403669,48.74175348,0.00000000,
4.973941,0.1577,1.0028,-0.6275,55.75403669,48.74175348,0.00000000,
4.975610,0.1577,1.0028,-0.6275,55.75403669,48.74175348,0.00000000,
4.976283,0.1577,1.0028,-0.6275,55.75403669,48.74175348,0.00000000,
4.976897,0.1577,1.0028,-0.6275,55.75403669,48.74175348,0.00000000,
4.984382,0.1577,1.0028,-0.6275,55.75403669,48.74175348,0.00000000,
4.985418,-0.4544,0.6600,0.7426,55.75403669,48.74175348,0.00000000,
5.030210,-0.4544,0.6600,0.7426,55.75403669,48.74175348,0.00000000,
5.031867,-0.4544,0.6600,0.7426,55.75403669,48.74175348,0.00000000,
5.043746,-0.4544,0.6600,0.7426,55.75403669,48.74175348,0.00000000,
5.045385,-0.4544,0.6600,0.7426,55.75403669,48.74175348,0.00000000,
5.053086,1.4901,0.7789,0.9501,55.75403669,48.74175348,0.00000000,
5.067900,1.4901,0.7789,0.9501,55.75403669,48.74175348,0.00000000,
5.113549,1.4901,0.7789,0.9501,55.75403669,48.74175348,0.00000000,
5.114964,1.4901,0.7789,0.9501,55.75403669,48.74175348,0.00000000,
5.115639,1.4901,0.7789,0.9501,55.75403669,48.74175348,0.00000000,
5.123642,0.5441,0.4868,0.0570,55.75403669,48.74175348,0.00000000,
5.125741,0.5441,0.4868,0.0570,55.75403669,48.74175348,0.00000000,
5.183593,0.5441,0.4868,0.0570,55.75403669,48.74175348,0.00000000,
5.185580,0.5441,0.4868,0.0570,55.75403669,48.74175348,0.00000000,
5.186463,0.5441,0.4868,0.0570,55.75403669,48.74175348,0.00000000,
5.188104,0.5441,0.4868,0.0570,55.75403669,48.74175348,0.00000000,
5.193954,1.5028,-0.2454,1.3307,55.75403669,48.74175348,0.00000000,
5.231583,1.5028,-0.2454,1.3307,55.75403669,48.74175348,0.00000000,
5.233303,1.5028,-0.2454,1.3307,55.75403669,48.74175348,0.00000000,
5.249467,1.5028,-0.2454,1.3307,55.75403669,48.74175348,0.00000000,
5.254982,1.5028,-0.2454,1.3307,55.75403669,48.74175348,0.00000000,
5.265069,0.0608,-1.5232,1.3171,55.75403669,48.74175348,0.00000000,
5.266696,0.0608,-1.5232,1.3171,55.75403669,48.74175348,0.00000000,
5.309097,0.0608,-1.5232,1.3171,55.75403669,48.74175348,0.00000000,
5.310346,0.0608,-1.5232,1.3171,55.75403669,48.74175348,0.00000000,
5.325033,0.0608,-1.5232,1.3171,55.75403669,48.74175348,0.00000000,
5.326487,0.0608,-1.5232,1.3171,55.75403669,48.74175348,0.00000000,
5.334505,0.1285,-1.1291,-0.9137,55.75403669,48.74175348,0.00000000,
5.383188,0.1285,-1.1291,-0.9137,55.75403669,48.74175348,0.00000000,
5.385111,0.1285,-1.1291,-0.9137,55.75403669,48.74175348,0.00000000,
5.395327,0.1285,-1.1291,-0.9137,55.75403669,48.74175348,0.00000000,
5.396331,0.1285,-1.1291,-0.9137,55.75403669,48.74175348,0.00000000,
5.405464,-0.7268,-1.3712,-0.0934,55.75403669,48.74175348,0.00000000,
5.407607,-0.7268,-1.3712,-0.0934,55.75403669,48.74175348,0.00000000,
5.433114,-0.7268,-1.3712,-0.0934,55.75403669,48.74175348,0.00000000,
5.448958,-0.7268,-1.3712,-0.0934,55.75403669,48.74175348,0.00000000,
5.465713,-0.7268,-1.3712,-0.0934,55.75403669,48.74175348,0.00000000,
5.467347,-0.7268,-1.3712,-0.0934,55.75403669,48.74175348,0.00000000,
5.475574,-1.3940,0.2360,-0.8721,55.75403669,48.74175348,0.00000000,
5.516433,-1.3940,0.2360,-0.8721,55.75403669,48.74175348,0.00000000,
5.518004,-1.3940,0.2360,-0.8721,55.75403669,48.74175348,0.00000000,
5.535398,-1.3940,0.2360,-0.8721,55.75403669,48.74175348,0.00000000,
5.537052,-1.3940,0.2360,-0.8721,55.75403669,48.74175348,0.00000000,
5.548051,0.4427,0.2904,-1.1667,55.75403669,48.74175348,0.00000000,
5.549992,0.4427,0.2904,-1.1667,55.75403669,48.74175348,0.00000000,
5.582742,0.4427,0.2904,-1.1667,55.75403669,48.74175348,0.00000000,
5.606690,0.4427,0.2904,-1.1667,55.75403669,48.74175348,0.00000000,
5.608101,0.4427,0.2904,-1.1667,55.75403669,48.74175348,0.00000000,
5.608749,0.4427,0.2904,-1.1667,55.75403669,48.74175348,0.00000000,
5.617182,-0.5833,0.4659,-1.2245,55.75403669,48.74175348,0.00000000,
5.634301,-0.5833,0.4659,-1.2245,55.75403669,48.74175348,0.00000000,
5.650624,-0.5833,0.4659,-1.2245,55.75403669,48.74175348,0.00000000,
5.676962,-0.5833,0.4659,-1.2245,55.75403669,48.74175348,0.00000000,
5.678409,-0.5833,0.4659,-1.2245,55.75403669,48.74175348,0.00000000,
5.686754,-0.5833,0.4659,-1.2245,55.75403669,48.74175348,0.00000000,
5.688417,-1.2959,0.6145,-0.2912,55.75403669,48.74175348,0.00000000,
5.715899,-1.2959,0.6145,-0.2912,55.75403669,48.74175348,0.00000000,
5.746790,-1.2959,0.6145,-0.2912,55.75403669,48.74175348,0.00000000,
5.748368,-1.2959,0.6145,-0.2912,55.75403669,48.74175348,0.00000000,
5.749145,-1.2959,0.6145,-0.2912,55.75403669,48.74175348,0.00000000,
5.757105,-0.7665,0.5496,0.6528,55.75403669,48.74175348,0.00000000,
5.782999,-0.7665,0.5496,0.6528,55.75403669,48.74175348,0.00000000,
5.809509,-0.7665,0.5496,0.6528,55.75403669,48.74175348,0.00000000,
5.811427,-0.7665,0.5496,0.6528,55.75403669,48.74175348,0.00000000,
5.817383,-0.7665,0.5496,0.6528,55.75403669,48.74175348,0.00000000,
5.827665,0.3936,0.5752,-0.0530,55.75403669,48.74175348,0.00000000,
5.829248,0.3936,0.5752,-0.0530,55.75403669,48.74175348,0.00000000,
5.849396,0.3936,0.5752,-0.0530,55.75403669,48.74175348,0.00000000,
5.887904,0.3936,0.5752,-0.0530,55.75403669,48.74175348,0.00000000,
5.889348,0.3936,0.5752,-0.0530,55.75403669,48.74175348,0.00000000,
5.890005,0.3936,0.5752,-0.0530,55.75403669,48.74175348,0.00000000,
5.897311,1.4553,-0.5952,2.8236,55.75403669,48.74175348,0.00000000,
5.916375,1.4553,-0.5952,2.8236,55.75403669,48.74175348,0.00000000,
5.958183,1.4553,-0.5952,2.8236,55.75403669,48.74175348,0.00000000,
5.959724,1.4553,-0.5952,2.8236,55.75403669,48.74175348,0.00000000,
5.960446,1.4553,-0.5952,2.8236,55.75403669,48.74175348,0.00000000,
5.968053,0.4332,-0.6954,-0.0912,55.75403669,48.74175348,0.00000000,
5.970177,0.4332,-0.6954,-0.0912,55.75403669,48.74175348,0.00000000,
6.028135,0.4332,-0.6954,-0.0912,55.75403669,48.74175348,0.00000000,
6.029477,0.4332,-0.6954,-0.0912,55.75403669,48.74175348,0.00000000,
6.030225,0.4332,-0.6954,-0.0912,55.75403669,48.74175348,0.00000000,
6.031301,0.4332,-0.6954,-0.0912,55.75403669,48.74175348,0.00000000,
6.039385,0.4841,-0.9369,-0.2445,55.75403669,48.74175348,0.00000000,
6.049202,0.4841,-0.9369,-0.2445,55.75403669,48.74175348,0.00000000,
6.098764,0.4841,-0.9369,-0.2445,55.75403669,48.74175348,0.00000000,
6.100237,0.4841,-0.9369,-0.2445,55.75403669,48.74175348,0.00000000,
6.101141,0.4841,-0.9369,-0.2445,55.75403669,48.74175348,0.00000000,
6.108560,-0.8063,-0.7283,0.3743,55.75403669,48.74175348,0.00000000,
6.110033,-0.8063,-0.7283,0.3743,55.75403669,48.74175348,0.00000000,
6.169172,-0.8063,-0.7283,0.3743,55.75403669,48.74175348,0.00000000,
6.170879,-0.8063,-0.7283,0.3743,55.75403669,48.74175348,0.00000000,
6.171590,-0.8063,-0.7283,0.3743,55.75403669,48.74175348,0.00000000,
6.172321,-0.8063,-0.7283,0.3743,55.75403669,48.74175348,0.00000000,
6.178820,-0.4622,0.3775,-1.4930,55.75403669,48.74175348,0.00000000,
6.239645,-0.4622,0.3775,-1.4930,55.75403669,48.74175348,0.00000000,
6.241253,-0.4622,0.3775,-1.4930,55.75403669,48.74175348,0.00000000,
6.241968,-0.4622,0.3775,-1.4930,55.75403669,48.74175348,0.00000000,
6.242600,-0.4622,0.3775,-1.4930,55.75403669,48.74175348,0.00000000,
6.249558,0.2519,-0.0168,-0.7381,55.75403669,48.74175348,0.00000000,
6.251434,0.2519,-0.0168,-0.7381,55.75403669,48.74175348,0.00000000,
6.308807,0.2519,-0.0168,-0.7381,55.75403669,48.74175348,0.00000000,
6.310374,0.2519,-0.0168,-0.7381,55.75403669,48.74175348,0.00000000,
6.311557,0.2519,-0.0168,-0.7381,55.75403669,48.74175348,0.00000000,
6.312273,0.2519,-0.0168,-0.7381,55.75403669,48.74175348,0.00000000,
6.319351,0.3626,0.0344,-1.0220,55.75403669,48.74175348,0.00000000,
6.380371,0.3626,0.0344,-1.0220,55.75403669,48.74175348,0.00000000,
6.382095,0.3626,0.0344,-1.0220,55.75403669,48.74175348,0.00000000,
6.382745,0.3626,0.0344,-1.0220,55.75403669,48.74175348,0.00000000,
6.383346,0.3626,0.0344,-1.0220,55.75403669,48.74175348,0.00000000,
6.392410,0.3626,0.0344,-1.0220,55.75403669,48.74175348,0.00000000,
6.393754,1.3067,0.6491,0.0451,55.75403669,48.74175348,0.00000000,
6.440869,1.3067,0.6491,0.0451,55.75403669,48.74175348,0.00000000,
6.442302,1.3067,0.6491,0.0451,55.75403669,48.74175348,0.00000000,
6.450321,1.3067,0.6491,0.0451,55.75403669,48.74175348,0.00000000,
6.451831,1.3067,0.6491,0.0451,55.75403669,48.74175348,0.00000000,
6.459883,1.0741,1.0022,0.7454,55.75403669,48.74175348,0.00000000,
6.515896,1.0741,1.0022,0.7454,55.75403669,48.74175348,0.00000000,
6.517354,1.0741,1.0022,0.7454,55.75403669,48.74175348,0.00000000,
6.518037,1.0741,1.0022,0.7454,55.75403669,48.74175348,0.00000000,
6.520164,1.0741,1.0022,0.7454,55.75403669,48.74175348,0.00000000,
6.531136,-0.5491,1.5586,-0.1159,55.75403669,48.74175348,0.00000000,
6.533228,-0.5491,1.5586,-0.1159,55.75403669,48.74175348,0.00000000,
6.558443,-0.5491,1.5586,-0.1159,55.75403669,48.74175348,0.00000000,
6.582419,-0.5491,1.5586,-0.1159,55.75403669,48.74175348,0.00000000,
6.591571,-0.5491,1.5586,-0.1159,55.75403669,48.74175348,0.00000000,
6.593128,-0.5491,1.5586,-0.1159,55.75403669,48.74175348,0.00000000,
6.601483,-0.7424,-1.7314,4.3124,55.75403669,48.74175348,0.00000000,
6.649581,-0.7424,-1.7314,4.3124,55.75403669,48.74175348,0.00000000,
6.651157,-0.7424,-1.7314,4.3124,55.75403669,48.74175348,0.00000000,
6.661744,-0.7424,-1.7314,4.3124,55.75403669,48.74175348,0.00000000,
6.663187,-0.7424,-1.7314,4.3124,55.75403669,48.74175348,0.00000000,
6.672015,-0.2324,-1.0531,-0.7606,55.75403669,48.74175348,0.00000000,
6.674238,-0.2324,-1.0531,-0.7606,55.75403669,48.74175348,0.00000000,
6.716196,-0.2324,-1.0531,-0.7606,55.75403669,48.74175348,0.00000000,
6.717682,-0.2324,-1.0531,-0.7606,55.75403669,48.74175348,0.00000000,
6.732874,-0.2324,-1.0531,-0.7606,55.75403669,48.74175348,0.00000000,
6.734364,-0.2324,-1.0531,-0.7606,55.75403669,48.74175348,0.00000000,
6.742120,-0.0190,-0.9798,-0.4449,55.75403669,48.74175348,0.00000000,
6.782941,-0.0190,-0.9798,-0.4449,55.75403669,48.74175348,0.00000000,
6.784591,-0.0190,-0.9798,-0.4449,55.75403669,48.74175348,0.00000000,
6.803742,-0.0190,-0.9798,-0.4449,55.75403669,48.74175348,0.00000000,
6.805103,-0.0190,-0.9798,-0.4449,55.75403669,48.74175348,0.00000000,
6.813133,-0.3893,-0.5960,-0.6775,55.75403669,48.74175348,0.00000000,
6.814902,-0.3893,-0.5960,-0.6775,55.75403669,48.74175348,0.00000000,
6.844484,-0.3893,-0.5960,-0.6775,55.75403669,48.74175348,0.00000000,
6.873635,-0.3893,-0.5960,-0.6775,55.75403669,48.74175348,0.00000000,
6.875101,-0.3893,-0.5960,-0.6775,55.75403669,48.74175348,0.00000000,
6.875766,-0.3893,-0.5960,-0.6775,55.75403669,48.74175348,0.00000000,
6.882715,0.6704,0.1874,-1.6745,55.75403669,48.74175348,0.00000000,
6.916848,0.6704,0.1874,-1.6745,55.75403669,48.74175348,0.00000000,
6.918207,0.6704,0.1874,-1.6745,55.75403669,48.74175348,0.00000000,
6.943258,0.6704,0.1874,-1.6745,55.75403669,48.74175348,0.00000000,
6.944695,0.6704,0.1874,-1.6745,55.75403669,48.74175348,0.00000000,
6.952890,-0.4396,0.2150,-1.2301,55.75403669,48.74175348,0.00000000,
6.955250,-0.4396,0.2150,-1.2301,55.75403669,48.74175348,0.00000000,
6.975038,-0.4396,0.2150,-1.2301,55.75403669,48.74175348,0.00000000,
7.013729,-0.4396,0.2150,-1.2301,55.75403669,48.74175348,0.00000000,
7.015443,-0.4396,0.2150,-1.2301,55.75403669,48.74175348,0.00000000,
7.016245,-0.4396,0.2150,-1.2301,55.75403669,48.74175348,0.00000000,
7.023739,-1.2826,0.8782,-0.9048,55.75403669,48.74175348,0.00000000,
7.045921,-1.2826,0.8782,-0.9048,55.75403669,48.74175348,0.00000000,
7.059543,-1.2826,0.8782,-0.9048,55.75403669,48.74175348,0.00000000,
7.084621,-1.2826,0.8782,-0.9048,55.75403669,48.74175348,0.00000000,
7.085966,-1.2826,0.8782,-0.9048,55.75403669,48.74175348,0.00000000,
7.093736,0.1339,0.6750,1.3722,55.75403669,48.74175348,0.00000000,
7.095590,0.1339,0.6750,1.3722,55.75403669,48.74175348,0.00000000,
7.116319,0.1339,0.6750,1.3722,55.75403669,48.74175348,0.00000000,
7.154011,0.1339,0.6750,1.3722,55.75403669,48.74175348,0.00000000,
7.155494,0.1339,0.6750,1.3722,55.75403669,48.74175348,0.00000000,
7.156168,0.1339,0.6750,1.3722,55.75403669,48.74175348,0.00000000,
7.165555,1.6524,0.7574,1.8469,55.75403669,48.74175348,0.00000000,
7.183342,1.6524,0.7574,1.8469,55.75403669,48.74175348,0.00000000,
7.202815,1.6524,0.7574,1.8469,55.75403669,48.74175348,0.00000000,
7.224729,1.6524,0.7574,1.8469,55.75403669,48.74175348,0.00000000,
7.226020,1.6524,0.7574,1.8469,55.75403669,48.74175348,0.00000000,
7.234523,2.3477,-1.2237,3.9865,55.75403669,48.74175348,0.00000000,
7.236611,2.3477,-1.2237,3.9865,55.75403669,48.74175348,0.00000000,
7.263471,2.3477,-1.2237,3.9865,55.75403669,48.74175348,0.00000000,
7.282807,2.3477,-1.2237,3.9865,55.75403669,48.74175348,0.00000000,
7.294356,2.3477,-1.2237,3.9865,55.75403669,48.74175348,0.00000000,
7.295413,2.3477,-1.2237,3.9865,55.75403669,48.74175348,0.00000000,
7.304333,1.5540,-1.2317,-2.2537,55.75403669,48.74175348,0.00000000,
7.320128,1.5540,-1.2317,-2.2537,55.75403669,48.74175348,0.00000000,
7.334388,1.5540,-1.2317,-2.2537,55.75403669,48.74175348,0.00000000,
7.357027,1.5540,-1.2317,-2.2537,55.75403669,48.74175348,0.00000000,
7.364240,1.5540,-1.2317,-2.2537,55.75403669,48.74175348,0.00000000,
7.375846,1.5540,-1.2317,-2.2537,55.75403669,48.74175348,0.00000000,
7.376702,-0.0829,-1.4823,-0.1071,55.75403669,48.74175348,0.00000000,
7.398832,-0.0829,-1.4823,-0.1071,55.75403669,48.74175348,0.00000000,
7.419991,-0.0829,-1.4823,-0.1071,55.75403669,48.74175348,0.00000000,
7.434737,-0.0829,-1.4823,-0.1071,55.75403669,48.74175348,0.00000000,
7.436278,-0.0829,-1.4823,-0.1071,55.75403669,48.74175348,0.00000000,
7.445777,-1.8401,-0.5121,-1.2249,55.75403669,48.74175348,0.00000000,
7.456394,-1.8401,-0.5121,-1.2249,55.75403669,48.74175348,0.00000000,
7.476433,-1.8401,-0.5121,-1.2249,55.75403669,48.74175348,0.00000000,
7.496009,-1.8401,-0.5121,-1.2249,55.75403669,48.74175348,0.00000000,
7.505122,-1.8401,-0.5121,-1.2249,55.75403669,48.74175348,0.00000000,
7.515553,-0.5215,-0.0086,-1.5328,55.75403669,48.74175348,0.00000000,
7.517347,-0.5215,-0.0086,-1.5328,55.75403669,48.74175348,0.00000000,
7.544003,-0.5215,-0.0086,-1.5328,55.75403669,48.74175348,0.00000000,
7.561357,-0.5215,-0.0086,-1.5328,55.75403669,48.74175348,0.00000000,
7.578715,-0.5215,-0.0086,-1.5328,55.75403669,48.74175348,0.00000000,
7.580898,-0.5215,-0.0086,-1.5328,55.75403669,48.74175348,0.00000000,
7.586599,0.3556,-0.2523,-1.0504,55.75403669,48.74175348,0.00000000,
7.608057,0.3556,-0.2523,-1.0504,55.75403669,48.74175348,0.00000000,
7.628448,0.3556,-0.2523,-1.0504,55.75403669,48.74175348,0.00000000,
7.646591,0.3556,-0.2523,-1.0504,55.75403669,48.74175348,0.00000000,
7.647971,0.3556,-0.2523,-1.0504,55.75403669,48.74175348,0.00000000,
7.655915,0.3831,0.5737,-0.5476,55.75403669,48.74175348,0.00000000,
7.657409,0.3831,0.5737,-0.5476,55.75403669,48.74175348,0.00000000,
7.687567,0.3831,0.5737,-0.5476,55.75403669,48.74175348,0.00000000,
7.697681,0.3831,0.5737,-0.5476,55.75403669,48.74175348,0.00000000,
7.716265,0.3831,0.5737,-0.5476,55.75403669,48.74175348,0.00000000,
7.717817,0.3831,0.5737,-0.5476,55.75403669,48.74175348,0.00000000,
7.726845,0.2133,1.0801,1.0346,55.75403669,48.74175348,0.00000000,
7.736975,0.2133,1.0801,1.0346,55.75403669,48.74175348,0.00000000,
7.763676,0.2133,1.0801,1.0346,55.75403669,48.74175348,0.00000000,
7.782470,0.2133,1.0801,1.0346,55.75403669,48.74175348,0.00000000,
7.786306,0.2133,1.0801,1.0346,55.75403669,48.74175348,0.00000000,
7.799711,-1.6354,1.7018,0.1343,55.75403669,48.74175348,0.00000000,
7.802347,-1.6354,1.7018,0.1343,55.75403669,48.74175348,0.00000000,
7.816930,-1.6354,1.7018,0.1343,55.75403669,48.74175348,0.00000000,
7.836992,-1.6354,1.7018,0.1343,55.75403669,48.74175348,0.00000000,
7.856959,-1.6354,1.7018,0.1343,55.75403669,48.74175348,0.00000000,
7.858129,-1.6354,1.7018,0.1343,55.75403669,48.74175348,0.00000000,
7.866835,-0.6646,-0.4891,3.6088,55.75403669,48.74175348,0.00000000,
7.877468,-0.6646,-0.4891,3.6088,55.75403669,48.74175348,0.00000000,
7.897690,-0.6646,-0.4891,3.6088,55.75403669,48.74175348,0.00000000,
7.926576,-0.6646,-0.4891,3.6088,55.75403669,48.74175348,0.00000000,
7.927723,-0.6646,-0.4891,3.6088,55.75403669,48.74175348,0.00000000,
7.940039,-0.7038,-0.9142,0.1701,55.75403669,48.74175348,0.00000000,
7.945680,-0.7038,-0.9142,0.1701,55.75403669,48.74175348,0.00000000,
7.964304,-0.7038,-0.9142,0.1701,55.75403669,48.74175348,0.00000000,
7.985326,-0.7038,-0.9142,0.1701,55.75403669,48.74175348,0.00000000,
7.999926,-0.7038,-0.9142,0.1701,55.75403669,48.74175348,0.00000000,
8.001063,-0.7038,-0.9142,0.1701,55.75403669,48.74175348,0.00000000,
8.007242,-0.3734,-0.9508,-0.5789,55.75403669,48.74175348,0.00000000,
8.024614,-0.3734,-0.9508,-0.5789,55.75403669,48.74175348,0.00000000,
8.044120,-0.3734,-0.9508,-0.5789,55.75403669,48.74175348,0.00000000,
8.059526,-0.3734,-0.9508,-0.5789,55.75403669,48.74175348,0.00000000,
8.067617,-0.3734,-0.9508,-0.5789,55.75403669,48.74175348,0.00000000,
8.078352,-1.1865,-0.6979,-1.0599,55.75403669,48.74175348,0.00000000,
8.080425,-1.1865,-0.6979,-1.0599,55.75403669,48.74175348,0.00000000,
8.098270,-1.1865,-0.6979,-1.0599,55.75403669,48.74175348,0.00000000,
8.122146,-1.1865,-0.6979,-1.0599,55.75403669,48.74175348,0.00000000,
8.138994,-1.1865,-0.6979,-1.0599,55.75403669,48.74175348,0.00000000,
8.140171,-1.1865,-0.6979,-1.0599,55.75403669,48.74175348,0.00000000,
8.147965,0.1137,-0.1459,-1.7371,55.75403669,48.74175348,0.00000000,
8.160983,0.1137,-0.1459,-1.7371,55.75403669,48.74175348,0.00000000,
8.180700,0.1137,-0.1459,-1.7371,55.75403669,48.74175348,0.00000000,
8.205112,0.1137,-0.1459,-1.7371,55.75403669,48.74175348,0.00000000,
8.207681,0.1137,-0.1459,-1.7371,55.75403669,48.74175348,0.00000000,
8.221410,-0.0323,0.0513,-1.0114,55.75403669,48.74175348,0.00000000,
8.226186,-0.0323,0.0513,-1.0114,55.75403669,48.74175348,0.00000000,
8.238344,-0.0323,0.0513,-1.0114,55.75403669,48.74175348,0.00000000,
8.263886,-0.0323,0.0513,-1.0114,55.75403669,48.74175348,0.00000000,
8.278370,-0.0323,0.0513,-1.0114,55.75403669,48.74175348,0.00000000,
8.279415,-0.0323,0.0513,-1.0114,55.75403669,48.74175348,0.00000000,
8.289085,-0.3910,0.5337,-0.1523,55.75403669,48.74175348,0.00000000,
8.310149,-0.3910,0.5337,-0.1523,55.75403669,48.74175348,0.00000000,
8.320957,-0.3910,0.5337,-0.1523,55.75403669,48.74175348,0.00000000,
8.341415,-0.3910,0.5337,-0.1523,55.75403669,48.74175348,0.00000000,
8.351212,-0.3910,0.5337,-0.1523,55.75403669,48.74175348,0.00000000,
8.359112,0.1912,0.7485,1.2093,55.75403669,48.74175348,0.00000000,
8.360235,0.1912,0.7485,1.2093,55.75403669,48.74175348,0.00000000,
8.386069,0.1912,0.7485,1.2093,55.75403669,48.74175348,0.00000000,
8.403282,0.1912,0.7485,1.2093,55.75403669,48.74175348,0.00000000,
8.424892,0.1912,0.7485,1.2093,55.75403669,48.74175348,0.00000000,
8.428330,0.1912,0.7485,1.2093,55.75403669,48.74175348,0.00000000,
8.431006,1.3187,-0.2581,2.0480,55.75403669,48.74175348,0.00000000,
8.448527,1.3187,-0.2581,2.0480,55.75403669,48.74175348,0.00000000,
8.464492,1.3187,-0.2581,2.0480,55.75403669,48.74175348,0.00000000,
8.484314,1.3187,-0.2581,2.0480,55.75403669,48.74175348,0.00000000,
8.489671,1.3187,-0.2581,2.0480,55.75403669,48.74175348,0.00000000,
8.500294,1.1268,-1.4669,1.8970,55.75403669,48.74175348,0.00000000,
8.502124,1.1268,-1.4669,1.8970,55.75403669,48.74175348,0.00000000,
8.527014,1.1268,-1.4669,1.8970,55.75403669,48.74175348,0.00000000,
8.541864,1.1268,-1.4669,1.8970,55.75403669,48.74175348,0.00000000,
8.560108,1.1268,-1.4669,1.8970,55.75403669,48.74175348,0.00000000,
8.561395,1.1268,-1.4669,1.8970,55.75403669,48.74175348,0.00000000,
8.569268,1.4737,-0.8791,-0.9492,55.75403669,48.74175348,0.00000000,
8.588116,1.4737,-0.8791,-0.9492,55.75403669,48.74175348,0.00000000,
8.602369,1.4737,-0.8791,-0.9492,55.75403669,48.74175348,0.00000000,
8.621562,1.4737,-0.8791,-0.9492,55.75403669,48.74175348,0.00000000,
8.629776,1.4737,-0.8791,-0.9492,55.75403669,48.74175348,0.00000000,
8.640861,-1.1376,-0.6902,-0.0242,55.75403669,48.74175348,0.00000000,
8.641820,-1.1376,-0.6902,-0.0242,55.75403669,48.74175348,0.00000000,
8.670421,-1.1376,-0.6902,-0.0242,55.75403669,48.74175348,0.00000000,
8.685367,-1.1376,-0.6902,-0.0242,55.75403669,48.74175348,0.00000000,
8.701566,-1.1376,-0.6902,-0.0242,55.75403669,48.74175348,0.00000000,
8.702218,-1.1376,-0.6902,-0.0242,55.75403669,48.74175348,0.00000000,
8.710773,-0.4018,0.1320,-1.5514,55.75403669,48.74175348,0.00000000,
8.721425,-0.4018,0.1320,-1.5514,55.75403669,48.74175348,0.00000000,
8.749310,-0.4018,0.1320,-1.5514,55.75403669,48.74175348,0.00000000,
8.768463,-0.4018,0.1320,-1.5514,55.75403669,48.74175348,0.00000000,
8.772855,-0.4018,0.1320,-1.5514,55.75403669,48.74175348,0.00000000,
8.781255,0.2618,-0.4243,-1.2189,55.75403669,48.74175348,0.00000000,
8.783078,0.2618,-0.4243,-1.2189,55.75403669,48.74175348,0.00000000,
8.808692,0.2618,-0.4243,-1.2189,55.75403669,48.74175348,0.00000000,
8.833434,0.2618,-0.4243,-1.2189,55.75403669,48.74175348,0.00000000,
8.841920,0.2618,-0.4243,-1.2189,55.75403669,48.74175348,0.00000000,
8.842857,0.2618,-0.4243,-1.2189,55.75403669,48.74175348,0.00000000,
8.852368,0.2752,-0.0126,-0.8925,55.75403669,48.74175348,0.00000000,
8.873663,0.2752,-0.0126,-0.8925,55.75403669,48.74175348,0.00000000,
8.894756,0.2752,-0.0126,-0.8925,55.75403669,48.74175348,0.00000000,
8.912618,0.2752,-0.0126,-0.8925,55.75403669,48.74175348,0.00000000,
8.913728,0.2752,-0.0126,-0.8925,55.75403669,48.74175348,0.00000000,
8.922791,0.7218,0.4179,0.5441,55.75403669,48.74175348,0.00000000,
8.924329,0.7218,0.4179,0.5441,55.75403669,48.74175348,0.00000000,
8.955328,0.7218,0.4179,0.5441,55.75403669,48.74175348,0.00000000,
8.976155,0.7218,0.4179,0.5441,55.75403669,48.74175348,0.00000000,
8.982516,0.7218,0.4179,0.5441,55.75403669,48.74175348,0.00000000,
8.983559,0.7218,0.4179,0.5441,55.75403669,48.74175348,0.00000000,
8.994780,-0.9087,1.0924,0.5862,55.75403669,48.74175348,0.00000000,
9.003343,-0.9087,1.0924,0.5862,55.75403669,48.74175348,0.00000000,
9.036202,-0.9087,1.0924,0.5862,55.75403669,48.74175348,0.00000000,
9.053157,-0.9087,1.0924,0.5862,55.75403669,48.74175348,0.00000000,
9.054537,-0.9087,1.0924,0.5862,55.75403669,48.74175348,0.00000000,
9.062947,-0.0127,-0.5774,3.5953,55.75403669,48.74175348,0.00000000,
9.066315,-0.0127,-0.5774,3.5953,55.75403669,48.74175348,0.00000000,
9.086937,-0.0127,-0.5774,3.5953,55.75403669,48.74175348,0.00000000,
9.105115,-0.0127,-0.5774,3.5953,55.75403669,48.74175348,0.00000000,
9.125965,-0.0127,-0.5774,3.5953,55.75403669,48.74175348,0.00000000,
9.127202,-0.0127,-0.5774,3.5953,55.75403669,48.74175348,0.00000000,
9.133098,-0.4346,-0.9685,0.7329,55.75403669,48.74175348,0.00000000,
9.152305,-0.4346,-0.9685,0.7329,55.75403669,48.74175348,0.00000000,
9.169116,-0.4346,-0.9685,0.7329,55.75403669,48.74175348,0.00000000,
9.185353,-0.4346,-0.9685,0.7329,55.75403669,48.74175348,0.00000000,
9.194872,-0.4346,-0.9685,0.7329,55.75403669,48.74175348,0.00000000,
9.203695,-0.4346,-0.9685,0.7329,55.75403669,48.74175348,0.00000000,
9.204699,-0.7196,-0.7432,-0.2864,55.75403669,48.74175348,0.00000000,
9.223859,-0.7196,-0.7432,-0.2864,55.75403669,48.74175348,0.00000000,
9.255223,-0.7196,-0.7432,-0.2864,55.75403669,48.74175348,0.00000000,
9.263963,-0.7196,-0.7432,-0.2864,55.75403669,48.74175348,0.00000000,
9.264852,-0.7196,-0.7432,-0.2864,55.75403669,48.74175348,0.00000000,
9.277181,-0.5443,-0.6314,-0.6503,55.75403669,48.74175348,0.00000000,
9.293708,-0.5443,-0.6314,-0.6503,55.75403669,48.74175348,0.00000000,
9.309512,-0.5443,-0.6314,-0.6503,55.75403669,48.74175348,0.00000000,
9.326978,-0.5443,-0.6314,-0.6503,55.75403669,48.74175348,0.00000000,
9.333347,-0.5443,-0.6314,-0.6503,55.75403669,48.74175348,0.00000000,
9.344823,0.1556,-0.5938,-1.6485,55.75403669,48.74175348,0.00000000,
9.346667,0.1556,-0.5938,-1.6485,55.75403669,48.74175348,0.00000000,
9.373467,0.1556,-0.5938,-1.6485,55.75403669,48.74175348,0.00000000,
9.391709,0.1556,-0.5938,-1.6485,55.75403669,48.74175348,0.00000000,
9.406748,0.1556,-0.5938,-1.6485,55.75403669,48.74175348,0.00000000,
9.407894,0.1556,-0.5938,-1.6485,55.75403669,48.74175348,0.00000000,
9.414386,-0.7996,0.0557,-1.7221,55.75403669,48.74175348,0.00000000,
9.427394,-0.7996,0.0557,-1.7221,55.75403669,48.74175348,0.00000000,
9.446577,-0.7996,0.0557,-1.7221,55.75403669,48.74175348,0.00000000,
9.466799,-0.7996,0.0557,-1.7221,55.75403669,48.74175348,0.00000000,
9.474578,-0.7996,0.0557,-1.7221,55.75403669,48.74175348,0.00000000,
9.484967,-1.1454,0.5412,-0.0115,55.75403669,48.74175348,0.00000000,
9.486338,-1.1454,0.5412,-0.0115,55.75403669,48.74175348,0.00000000,
9.513812,-1.1454,0.5412,-0.0115,55.75403669,48.74175348,0.00000000,
9.532326,-1.1454,0.5412,-0.0115,55.75403669,48.74175348,0.00000000,
9.546425,-1.1454,0.5412,-0.0115,55.75403669,48.74175348,0.00000000,
9.548160,-1.1454,0.5412,-0.0115,55.75403669,48.74175348,0.00000000,
9.556110,-0.5155,0.9699,1.1754,55.75403669,48.74175348,0.00000000,
9.568077,-0.5155,0.9699,1.1754,55.75403669,48.74175348,0.00000000,
9.592519,-0.5155,0.9699,1.1754,55.75403669,48.74175348,0.00000000,
9.623234,-0.5155,0.9699,1.1754,55.75403669,48.74175348,0.00000000,
9.624598,-0.5155,0.9699,1.1754,55.75403669,48.74175348,0.00000000,
9.627175,1.1100,-0.3612,3.8356,55.75403669,48.74175348,0.00000000,
9.629036,1.1100,-0.3612,3.8356,55.75403669,48.74175348,0.00000000,
9.654284,1.1100,-0.3612,3.8356,55.75403669,48.74175348,0.00000000,
9.669937,1.1100,-0.3612,3.8356,55.75403669,48.74175348,0.00000000,
9.687176,1.1100,-0.3612,3.8356,55.75403669,48.74175348,0.00000000,
9.688449,1.1100,-0.3612,3.8356,55.75403669,48.74175348,0.00000000,
9.697130,1.2869,-0.8317,0.0262,55.75403669,48.74175348,0.00000000,
9.710663,1.2869,-0.8317,0.0262,55.75403669,48.74175348,0.00000000,
9.741729,1.2869,-0.8317,0.0262,55.75403669,48.74175348,0.00000000,
9.748384,1.2869,-0.8317,0.0262,55.75403669,48.74175348,0.00000000,
9.757499,1.2869,-0.8317,0.0262,55.75403669,48.74175348,0.00000000,
9.770476,1.0708,-1.0894,-0.2309,55.75403669,48.74175348,0.00000000,
9.771212,1.0708,-1.0894,-0.2309,55.75403669,48.74175348,0.00000000,
9.787730,1.0708,-1.0894,-0.2309,55.75403669,48.74175348,0.00000000,
9.806912,1.0708,-1.0894,-0.2309,55.75403669,48.74175348,0.00000000,
9.825442,1.0708,-1.0894,-0.2309,55.75403669,48.74175348,0.00000000,
9.825909,1.0708,-1.0894,-0.2309,55.75403669,48.74175348,0.00000000,
9.837301,-0.9740,-0.6888,-0.4518,55.75403669,48.74175348,0.00000000,
9.846191,-0.9740,-0.6888,-0.4518,55.75403669,48.74175348,0.00000000,
9.867802,-0.9740,-0.6888,-0.4518,55.75403669,48.74175348,0.00000000,
9.891806,-0.9740,-0.6888,-0.4518,55.75403669,48.74175348,0.00000000,
9.896159,-0.9740,-0.6888,-0.4518,55.75403669,48.74175348,0.00000000,
9.911682,-0.5193,-0.1109,-1.9185,55.75403669,48.74175348,0.00000000,
9.913292,-0.5193,-0.1109,-1.9185,55.75403669,48.74175348,0.00000000,
9.932629,-0.5193,-0.1109,-1.9185,55.75403669,48.74175348,0.00000000,
9.952520,-0.5193,-0.1109,-1.9185,55.75403669,48.74175348,0.00000000,
9.968017,-0.5193,-0.1109,-1.9185,55.75403669,48.74175348,0.00000000,
9.969253,-0.5193,-0.1109,-1.9185,55.75403669,48.74175348,0.00000000,
9.976372,0.3437,-0.4140,-1.2333,55.75403669,48.74175348,0.00000000,
9.987600,0.3437,-0.4140,-1.2333,55.75403669,48.74175348,0.00000000,
10.007473,0.3437,-0.4140,-1.2333,55.75403669,48.74175348,0.00000000,
10.032602,0.3437,-0.4140,-1.2333,55.75403669,48.74175348,0.00000000,
10.036821,0.3437,-0.4140,-1.2333,55.75403669,48.74175348,0.00000000,
10.047918,0.3437,-0.4140,-1.2333,55.75403669,48.74175348,0.00000000,
10.051488,0.4643,0.2123,-0.7271,55.75403669,48.74175348,0.00000000,
10.069235,0.4643,0.2123,-0.7271,55.75403669,48.74175348,0.00000000,
10.088528,0.4643,0.2123,-0.7271,55.75403669,48.74175348,0.00000000,
10.107604,0.4643,0.2123,-0.7271,55.75403669,48.74175348,0.00000000,
10.108791,0.4643,0.2123,-0.7271,55.75403669,48.74175348,0.00000000,
10.117732,1.0247,0.8821,0.0962,55.75403669,48.74175348,0.00000000,
10.129053,1.0247,0.8821,0.0962,55.75403669,48.74175348,0.00000000,
10.149000,1.0247,0.8821,0.0962,55.75403669,48.74175348,0.00000000,
10.175573,1.0247,0.8821,0.0962,55.75403669,48.74175348,0.00000000,
10.177158,1.0247,0.8821,0.0962,55.75403669,48.74175348,0.00000000,
10.191768,-0.7241,0.7730,0.8945,55.75403669,48.74175348,0.00000000,
10.193717,-0.7241,0.7730,0.8945,55.75403669,48.74175348,0.00000000,
10.216899,-0.7241,0.7730,0.8945,55.75403669,48.74175348,0.00000000,
10.229069,-0.7241,0.7730,0.8945,55.75403669,48.74175348,0.00000000,
10.248654,-0.7241,0.7730,0.8945,55.75403669,48.74175348,0.00000000,
10.249658,-0.7241,0.7730,0.8945,55.75403669,48.74175348,0.00000000,
10.257986,-0.0288,0.4907,2.3348,55.75403669,48.74175348,0.00000000,
10.272851,-0.0288,0.4907,2.3348,55.75403669,48.74175348,0.00000000,
10.292628,-0.0288,0.4907,2.3348,55.75403669,48.74175348,0.00000000,
10.311625,-0.0288,0.4907,2.3348,55.75403669,48.74175348,0.00000000,
10.319125,-0.0288,0.4907,2.3348,55.75403669,48.74175348,0.00000000,
10.328743,-1.1897,-0.7296,0.7975,55.75403669,48.74175348,0.00000000,
10.330691,-1.1897,-0.7296,0.7975,55.75403669,48.74175348,0.00000000,
10.352050,-1.1897,-0.7296,0.7975,55.75403669,48.74175348,0.00000000,
10.371273,-1.1897,-0.7296,0.7975,55.75403669,48.74175348,0.00000000,
10.390109,-1.1897,-0.7296,0.7975,55.75403669,48.74175348,0.00000000,
10.391816,-1.1897,-0.7296,0.7975,55.75403669,48.74175348,0.00000000,
10.399096,-0.2653,-0.9732,0.3364,55.75403669,48.74175348,0.00000000,
10.409724,-0.2653,-0.9732,0.3364,55.75403669,48.74175348,0.00000000,
10.431266,-0.2653,-0.9732,0.3364,55.75403669,48.74175348,0.00000000,
10.449762,-0.2653,-0.9732,0.3364,55.75403669,48.74175348,0.00000000,
10.459365,-0.2653,-0.9732,0.3364,55.75403669,48.74175348,0.00000000,
10.469474,-1.1620,-0.7575,-0.5883,55.75403669,48.74175348,0.00000000,
10.471031,-1.1620,-0.7575,-0.5883,55.75403669,48.74175348,0.00000000,
10.497378,-1.1620,-0.7575,-0.5883,55.75403669,48.74175348,0.00000000,
10.514408,-1.1620,-0.7575,-0.5883,55.75403669,48.74175348,0.00000000,
10.530922,-1.1620,-0.7575,-0.5883,55.75403669,48.74175348,0.00000000,
10.532428,-1.1620,-0.7575,-0.5883,55.75403669,48.74175348,0.00000000,
10.539979,0.4213,-0.5503,-1.0145,55.75403669,48.74175348,0.00000000,
10.551745,0.4213,-0.5503,-1.0145,55.75403669,48.74175348,0.00000000,
10.571004,0.4213,-0.5503,-1.0145,55.75403669,48.74175348,0.00000000,
10.591901,0.4213,-0.5503,-1.0145,55.75403669,48.74175348,0.00000000,
10.600060,0.4213,-0.5503,-1.0145,55.75403669,48.74175348,0.00000000,
10.610276,0.0656,-0.3888,-1.5287,55.75403669,48.74175348,0.00000000,
10.612339,0.0656,-0.3888,-1.5287,55.75403669,48.74175348,0.00000000,
10.630976,0.0656,-0.3888,-1.5287,55.75403669,48.74175348,0.00000000,
10.660231,0.0656,-0.3888,-1.5287,55.75403669,48.74175348,0.00000000,
10.672411,0.0656,-0.3888,-1.5287,55.75403669,48.74175348,0.00000000,
10.673965,0.0656,-0.3888,-1.5287,55.75403669,48.74175348,0.00000000,
10.683574,-1.0653,0.2408,-0.8875,55.75403669,48.74175348,0.00000000,
10.698673,-1.0653,0.2408,-0.8875,55.75403669,48.74175348,0.00000000,
10.718813,-1.0653,0.2408,-0.8875,55.75403669,48.74175348,0.00000000,
10.738637,-1.0653,0.2408,-0.8875,55.75403669,48.74175348,0.00000000,
10.742160,-1.0653,0.2408,-0.8875,55.75403669,48.74175348,0.00000000,
10.751352,-0.7556,0.4135,1.3221,55.75403669,48.74175348,0.00000000,
10.752396,-0.7556,0.4135,1.3221,55.75403669,48.74175348,0.00000000,
10.776991,-0.7556,0.4135,1.3221,55.75403669,48.74175348,0.00000000,
10.796903,-0.7556,0.4135,1.3221,55.75403669,48.74175348,0.00000000,
10.813418,-0.7556,0.4135,1.3221,55.75403669,48.74175348,0.00000000,
10.815019,-0.7556,0.4135,1.3221,55.75403669,48.74175348,0.00000000,
10.827669,0.0317,0.7306,1.0379,55.75403669,48.74175348,0.00000000,
10.833783,0.0317,0.7306,1.0379,55.75403669,48.74175348,0.00000000,
10.853671,0.0317,0.7306,1.0379,55.75403669,48.74175348,0.00000000,
10.874500,0.0317,0.7306,1.0379,55.75403669,48.74175348,0.00000000,
10.881173,0.0317,0.7306,1.0379,55.75403669,48.74175348,0.00000000,
10.895997,1.2736,-0.9971,3.5156,55.75403669,48.74175348,0.00000000,
10.898337,1.2736,-0.9971,3.5156,55.75403669,48.74175348,0.00000000,
10.914151,1.2736,-0.9971,3.5156,55.75403669,48.74175348,0.00000000,
10.932765,1.2736,-0.9971,3.5156,55.75403669,48.74175348,0.00000000,
10.951843,1.2736,-0.9971,3.5156,55.75403669,48.74175348,0.00000000,
10.953066,1.2736,-0.9971,3.5156,55.75403669,48.74175348,0.00000000,
10.962289,1.6644,-0.7127,-1.5751,55.75403669,48.74175348,0.00000000,
10.973175,1.6644,-0.7127,-1.5751,55.75403669,48.74175348,0.00000000,
10.993211,1.6644,-0.7127,-1.5751,55.75403669,48.74175348,0.00000000,
11.013405,1.6644,-0.7127,-1.5751,55.75403669,48.74175348,0.00000000,
11.022857,1.6644,-0.7127,-1.5751,55.75403669,48.74175348,0.00000000,
11.032678,1.6644,-0.7127,-1.5751,55.75403669,48.74175348,0.00000000,
11.036776,-0.1236,-0.8675,-0.6779,55.75403669,48.74175348,0.00000000,
11.055264,-0.1236,-0.8675,-0.6779,55.75403669,48.74175348,0.00000000,
11.073658,-0.1236,-0.8675,-0.6779,55.75403669,48.74175348,0.00000000,
11.093742,-0.1236,-0.8675,-0.6779,55.75403669,48.74175348,0.00000000,
11.095056,-0.1236,-0.8675,-0.6779,55.75403669,48.74175348,0.00000000,
11.102967,-0.7887,-0.0666,-1.1789,55.75403669,48.74175348,0.00000000,
11.114170,-0.7887,-0.0666,-1.1789,55.75403669,48.74175348,0.00000000,
11.139489,-0.7887,-0.0666,-1.1789,55.75403669,48.74175348,0.00000000,
11.154750,-0.7887,-0.0666,-1.1789,55.75403669,48.74175348,0.00000000,
11.163572,-0.7887,-0.0666,-1.1789,55.75403669,48.74175348,0.00000000,
11.173113,-0.7887,-0.0666,-1.1789,55.75403669,48.74175348,0.00000000,
11.174626,-0.3028,-0.0896,-0.9665,55.75403669,48.74175348,0.00000000,
11.194997,-0.3028,-0.0896,-0.9665,55.75403669,48.74175348,0.00000000,
11.215458,-0.3028,-0.0896,-0.9665,55.75403669,48.74175348,0.00000000,
11.235372,-0.3028,-0.0896,-0.9665,55.75403669,48.74175348,0.00000000,
11.236702,-0.3028,-0.0896,-0.9665,55.75403669,48.74175348,0.00000000,
11.243938,0.0446,-0.0806,-0.9988,55.75403669,48.74175348,0.00000000,
11.285170,0.0446,-0.0806,-0.9988,55.75403669,48.74175348,0.00000000,
11.286930,0.0446,-0.0806,-0.9988,55.75403669,48.74175348,0.00000000,
11.304135,0.0446,-0.0806,-0.9988,55.75403669,48.74175348,0.00000000,
11.304877,0.0446,-0.0806,-0.9988,55.75403669,48.74175348,0.00000000,
11.314449,0.0446,-0.0806,-0.9988,55.75403669,48.74175348,0.00000000,
11.314858,0.6308,0.5502,0.0047,55.75403669,48.74175348,0.00000000,
11.350796,0.6308,0.5502,0.0047,55.75403669,48.74175348,0.00000000,
11.374551,0.6308,0.5502,0.0047,55.75403669,48.74175348,0.00000000,
11.375427,0.6308,0.5502,0.0047,55.75403669,48.74175348,0.00000000,
11.375717,0.6308,0.5502,0.0047,55.75403669,48.74175348,0.00000000,
11.385558,0.9053,0.8005,0.5953,55.75403669,48.74175348,0.00000000,
11.417768,0.9053,0.8005,0.5953,55.75403669,48.74175348,0.00000000,
11.418394,0.9053,0.8005,0.5953,55.75403669,48.74175348,0.00000000,
11.443929,0.9053,0.8005,0.5953,55.75403669,48.74175348,0.00000000,
11.445185,0.9053,0.8005,0.5953,55.75403669,48.74175348,0.00000000,
11.456044,0.9053,0.8005,0.5953,55.75403669,48.74175348,0.00000000,
11.456462,-0.8716,1.3416,0.0778,55.75403669,48.74175348,0.00000000,
11.482775,-0.8716,1.3416,0.0778,55.75403669,48.74175348,0.00000000,
11.514904,-0.8716,1.3416,0.0778,55.75403669,48.74175348,0.00000000,
11.515763,-0.8716,1.3416,0.0778,55.75403669,48.74175348,0.00000000,
11.515970,-0.8716,1.3416,0.0778,55.75403669,48.74175348,0.00000000,
11.525261,-0.3417,-0.4662,3.4449,55.75403669,48.74175348,0.00000000,
11.558581,-0.3417,-0.4662,3.4449,55.75403669,48.74175348,0.00000000,
11.560195,-0.3417,-0.4662,3.4449,55.75403669,48.74175348,0.00000000,
11.583765,-0.3417,-0.4662,3.4449,55.75403669,48.74175348,0.00000000,
11.584481,-0.3417,-0.4662,3.4449,55.75403669,48.74175348,0.00000000,
11.595203,-0.3417,-0.4662,3.4449,55.75403669,48.74175348,0.00000000,
11.596115,-0.1074,-0.7503,-0.1694,55.75403669,48.74175348,0.00000000,
11.616848,-0.1074,-0.7503,-0.1694,55.75403669,48.74175348,0.00000000,
11.654021,-0.1074,-0.7503,-0.1694,55.75403669,48.74175348,0.00000000,
11.654633,-0.1074,-0.7503,-0.1694,55.75403669,48.74175348,0.00000000,
11.654906,-0.1074,-0.7503,-0.1694,55.75403669,48.74175348,0.00000000,
11.665824,-0.2308,-0.8065,-0.3667,55.75403669,48.74175348,0.00000000,
11.685115,-0.2308,-0.8065,-0.3667,55.75403669,48.74175348,0.00000000,
11.725675,-0.2308,-0.8065,-0.3667,55.75403669,48.74175348,0.00000000,
11.728856,-0.2308,-0.8065,-0.3667,55.75403669,48.74175348,0.00000000,
11.729164,-0.2308,-0.8065,-0.3667,55.75403669,48.74175348,0.00000000,
11.735539,-0.2308,-0.8065,-0.3667,55.75403669,48.74175348,0.00000000,
11.736017,-0.9675,-0.6110,-0.1347,55.75403669,48.74175348,0.00000000,
11.795191,-0.9675,-0.6110,-0.1347,55.75403669,48.74175348,0.00000000,
11.796234,-0.9675,-0.6110,-0.1347,55.75403669,48.74175348,0.00000000,
11.796441,-0.9675,-0.6110,-0.1347,55.75403669,48.74175348,0.00000000,
11.796626,-0.9675,-0.6110,-0.1347,55.75403669,48.74175348,0.00000000,
11.805443,0.0923,-0.1224,-1.2150,55.75403669,48.74175348,0.00000000,
11.817751,0.0923,-0.1224,-1.2150,55.75403669,48.74175348,0.00000000,
11.865666,0.0923,-0.1224,-1.2150,55.75403669,48.74175348,0.00000000,
11.866343,0.0923,-0.1224,-1.2150,55.75403669,48.74175348,0.00000000,
11.866566,0.0923,-0.1224,-1.2150,55.75403669,48.74175348,0.00000000,
11.876455,-0.0647,0.0050,-1.2086,55.75403669,48.74175348,0.00000000,
11.877183,-0.0647,0.0050,-1.2086,55.75403669,48.74175348,0.00000000,
11.921755,-0.0647,0.0050,-1.2086,55.75403669,48.74175348,0.00000000,
11.926146,-0.0647,0.0050,-1.2086,55.75403669,48.74175348,0.00000000,
11.937009,-0.0647,0.0050,-1.2086,55.75403669,48.74175348,0.00000000,
11.937527,-0.0647,0.0050,-1.2086,55.75403669,48.74175348,0.00000000,
11.947095,-0.7791,0.5487,-0.8018,55.75403669,48.74175348,0.00000000,
11.973433,-0.7791,0.5487,-0.8018,55.75403669,48.74175348,0.00000000,
12.006764,-0.7791,0.5487,-0.8018,55.75403669,48.74175348,0.00000000,
12.008457,-0.7791,0.5487,-0.8018,55.75403669,48.74175348,0.00000000,
12.009271,-0.7791,0.5487,-0.8018,55.75403669,48.74175348,0.00000000,
12.017756,-0.7791,0.5487,-0.8018,55.75403669,48.74175348,0.00000000,
12.018817,-0.5500,0.4071,1.2306,55.75403669,48.74175348,0.00000000,
112.867995,-0.5500,0.4071,1.2306,55.75403669,48.74175348,0.00000000,
112.871222,-0.5500,0.4071,1.2306,55.75297649,48.74391521,0.63999999,
112.925374,-0.5500,0.4071,1.2306,55.75297649,48.74391521,0.63999999,
112.925768,-0.5500,0.4071,1.2306,55.75297649,48.74391521,0.63999999,
112.937336,-0.5500,0.4071,1.2306,55.75297649,48.74391521,0.63999999,
112.937595,-0.5500,0.4071,1.2306,55.75297649,48.74391521,0.63999999,
112.994469,-0.5500,0.4071,1.2306,55.75297649,48.74391521,0.63999999,
112.995714,-0.5500,0.4071,1.2306,55.75297649,48.74391521,0.63999999,
112.996517,-0.5500,0.4071,1.2306,55.75297649,48.74391521,0.63999999,
113.001358,0.0000,0.0000,0.0000,55.75297649,48.74391521,0.63999999,
113.002220,0.0000,0.0000,0.0000,55.75297649,48.74391521,0.63999999,
113.034597,0.0000,0.0000,0.0000,55.75297649,48.74391521,0.63999999,
113.034906,0.0000,0.0000,0.0000,55.75297649,48.74391521,0.63999999,
113.058498,0.0000,0.0000,0.0000,55.75297649,48.74391521,0.63999999,
113.068384,-1.2484,-0.0824,-1.0521,55.75297649,48.74391521,0.63999999,
113.068933,-1.2484,-0.0824,-1.0521,55.75297649,48.74391521,0.63999999,
113.069137,-1.2484,-0.0824,-1.0521,55.75297649,48.74391521,0.63999999,
113.109749,-1.2484,-0.0824,-1.0521,55.75297649,48.74391521,0.63999999,
113.126280,-1.2484,-0.0824,-1.0521,55.75297649,48.74391521,0.63999999,
113.134332,-1.2484,-0.0824,-1.0521,55.75297649,48.74391521,0.63999999,
113.139860,-1.2484,-0.0824,-1.0521,55.75297649,48.74391521,0.63999999,
113.140475,0.2127,0.0534,-0.4542,55.75297649,48.74391521,0.63999999,
113.193607,0.2127,0.0534,-0.4542,55.75297649,48.74391521,0.63999999,
113.194229,0.2127,0.0534,-0.4542,55.75297649,48.74391521,0.63999999,
113.200283,0.2127,0.0534,-0.4542,55.75297649,48.74391521,0.63999999,
113.218272,0.2127,0.0534,-0.4542,55.75297649,48.74391521,0.63999999,
113.219027,0.1649,0.1657,3.6276,55.75297649,48.74391521,0.63999999,
113.219785,0.1649,0.1657,3.6276,55.75297649,48.74391521,0.63999999,
113.259882,0.1649,0.1657,3.6276,55.75297649,48.74391521,0.63999999,
113.262112,0.1649,0.1657,3.6276,55.75297649,48.74391521,0.63999999,
113.281082,0.1649,0.1657,3.6276,55.75297649,48.74391521,0.63999999,
113.282051,-0.2811,0.8272,3.1170,55.75297649,48.74391521,0.63999999,
113.282956,-0.2811,0.8272,3.1170,55.75297649,48.74391521,0.63999999,
113.292207,-0.2811,0.8272,3.1170,55.75297649,48.74391521,0.63999999,
113.328949,-0.2811,0.8272,3.1170,55.75297649,48.74391521,0.63999999,
113.351944,-0.2811,0.8272,3.1170,55.75297649,48.74391521,0.63999999,
113.352872,-0.2811,0.8272,3.1170,55.75297649,48.74391521,0.63999999,
113.353302,-0.7958,0.8757,1.3058,55.75297649,48.74391521,0.63999999,
113.354034,-0.7958,0.8757,1.3058,55.75297649,48.74391521,0.63999999,
113.394836,-0.7958,0.8757,1.3058,55.75297649,48.74391521,0.63999999,
113.395753,-0.7958,0.8757,1.3058,55.75297649,48.74391521,0.63999999,
113.421609,-1.7689,-0.3713,2.0782,55.75297649,48.74391521,0.63999999,
113.424371,-1.7689,-0.3713,2.0782,55.75297649,48.74391521,0.63999999,
113.425359,-1.7689,-0.3713,2.0782,55.75297649,48.74391521,0.63999999,
113.459633,-1.7689,-0.3713,2.0782,55.75297649,48.74391521,0.63999999,
113.461279,-1.7689,-0.3713,2.0782,55.75297649,48.74391521,0.63999999,
113.491863,-1.7689,-0.3713,2.0782,55.75297649,48.74391521,0.63999999,
113.494890,-1.7689,-0.3713,2.0782,55.75297649,48.74391521,0.63999999,
113.496209,-1.7689,-0.3713,2.0782,55.75297649,48.74391521,0.63999999,
113.496910,-0.4284,-0.4981,0.7584,55.75297649,48.74391521,0.63999999,
113.525964,-0.4284,-0.4981,0.7584,55.75297649,48.74391521,0.63999999,
113.561931,-0.4284,-0.4981,0.7584,55.75297649,48.74391521,0.63999999,
113.563633,-0.4284,-0.4981,0.7584,55.75297649,48.74391521,0.63999999,
113.564074,-0.5759,-0.7063,-0.1718,55.75297649,48.74391521,0.63999999,
113.564762,-0.5759,-0.7063,-0.1718,55.75297649,48.74391521,0.63999999,
113.592876,-0.5759,-0.7063,-0.1718,55.75297649,48.74391521,0.63999999,
113.593840,-0.5759,-0.7063,-0.1718,55.75297649,48.74391521,0.63999999,
113.632690,-0.0976,-0.2521,-1.4884,55.75297649,48.74391521,0.63999999,
113.634628,-0.0976,-0.2521,-1.4884,55.75297649,48.74391521,0.63999999,
113.635218,-0.0976,-0.2521,-1.4884,55.75297649,48.74391521,0.63999999,
113.635693,-0.0976,-0.2521,-1.4884,55.75297649,48.74391521,0.63999999,
113.659324,-0.0976,-0.2521,-1.4884,55.75297649,48.74391521,0.63999999,
113.701730,-0.0976,-0.2521,-1.4884,55.75297649,48.74391521,0.63999999,
113.703076,-0.0976,-0.2521,-1.4884,55.75297649,48.74391521,0.63999999,
113.704401,0.7150,0.4413,-0.9700,55.75297649,48.74391521,0.63999999,
113.705673,0.7150,0.4413,-0.9700,55.75297649,48.74391521,0.63999999,
113.726487,0.7150,0.4413,-0.9700,55.75297649,48.74391521,0.63999999,
113.773606,0.7150,0.4413,-0.9700,55.75297649,48.74391521,0.63999999,
113.774989,0.1820,0.8572,0.8031,55.75297649,48.74391521,0.63999999,
113.776142,0.1820,0.8572,0.8031,55.75297649,48.74391521,0.63999999,
113.776724,0.1820,0.8572,0.8031,55.75297649,48.74391521,0.63999999,
113.777249,0.1820,0.8572,0.8031,55.75297649,48.74391521,0.63999999,
113.793239,0.1820,0.8572,0.8031,55.75297649,48.74391521,0.63999999,
113.843571,0.1820,0.8572,0.8031,55.75297649,48.74391521,0.63999999,
113.845038,0.1820,0.8572,0.8031,55.75297649,48.74391521,0.63999999,
113.845738,0.1820,0.8572,0.8031,55.75297649,48.74391521,0.63999999,
113.846384,0.4185,0.7604,2.2935,55.75297649,48.74391521,0.63999999,
113.860389,0.4185,0.7604,2.2935,55.75297649,48.74391521,0.63999999,
113.876605,0.4185,0.7604,2.2935,55.75297649,48.74391521,0.63999999,
113.914875,0.4185,0.7604,2.2935,55.75297649,48.74391521,0.63999999,
113.916418,1.0444,0.4004,1.5966,55.75297649,48.74391521,0.63999999,
113.917877,1.0444,0.4004,1.5966,55.75297649,48.74391521,0.63999999,
113.918537,1.0444,0.4004,1.5966,55.75297649,48.74391521,0.63999999,
113.984319,1.6296,-1.2015,2.8989,55.75297649,48.74391521,0.63999999,
113.987319,1.6296,-1.2015,2.8989,55.75297649,48.74391521,0.63999999,
113.988248,1.6296,-1.2015,2.8989,55.75297649,48.74391521,0.63999999,
113.988957,1.6296,-1.2015,2.8989,55.75297649,48.74391521,0.63999999,
113.989875,1.6296,-1.2015,2.8989,55.75297649,48.74391521,0.63999999,
114.055062,1.6296,-1.2015,2.8989,55.75297649,48.74391521,0.63999999,
114.056572,1.6716,-1.0057,-2.0715,55.75297649,48.74391521,0.63999999,
114.058098,1.6716,-1.0057,-2.0715,55.75297649,48.74391521,0.63999999,
114.058754,1.6716,-1.0057,-2.0715,55.75297649,48.74391521,0.63999999,
114.059353,1.6716,-1.0057,-2.0715,55.75297649,48.74391521,0.63999999,
114.059977,1.6716,-1.0057,-2.0715,55.75297649,48.74391521,0.63999999,
114.110292,1.6716,-1.0057,-2.0715,55.75297649,48.74391521,0.63999999,
114.112053,1.6716,-1.0057,-2.0715,55.75297649,48.74391521,0.63999999,
114.124691,1.6716,-1.0057,-2.0715,55.75297649,48.74391521,0.63999999,
114.126249,1.6716,-1.0057,-2.0715,55.75297649,48.74391521,0.63999999,
114.126954,0.8721,-0.4181,-0.9854,55.75297649,48.74391521,0.63999999,
114.193562,0.8721,-0.4181,-0.9854,55.75297649,48.74391521,0.63999999,
114.195093,0.8721,-0.4181,-0.9854,55.75297649,48.74391521,0.63999999,
114.195770,0.8721,-0.4181,-0.9854,55.75297649,48.74391521,0.63999999,
114.196379,0.8721,-0.4181,-0.9854,55.75297649,48.74391521,0.63999999,
114.196987,0.8721,-0.4181,-0.9854,55.75297649,48.74391521,0.63999999,
114.197730,0.7320,-0.1074,-1.8913,55.75297649,48.74391521,0.63999999,
114.260038,0.7320,-0.1074,-1.8913,55.75297649,48.74391521,0.63999999,
114.261856,0.7320,-0.1074,-1.8913,55.75297649,48.74391521,0.63999999,
114.262566,0.7320,-0.1074,-1.8913,55.75297649,48.74391521,0.63999999,
114.265810,0.7320,-0.1074,-1.8913,55.75297649,48.74391521,0.63999999,
114.266765,0.7299,0.1841,-1.7993,55.75297649,48.74391521,0.63999999,
114.326824,0.7299,0.1841,-1.7993,55.75297649,48.74391521,0.63999999,
114.328551,0.7299,0.1841,-1.7993,55.75297649,48.74391521,0.63999999,
114.329351,0.7299,0.1841,-1.7993,55.75297649,48.74391521,0.63999999,
114.335845,0.4298,1.0375,0.3360,55.75297649,48.74391521,0.63999999,
114.338377,0.4298,1.0375,0.3360,55.75297649,48.74391521,0.63999999,
114.339124,0.4298,1.0375,0.3360,55.75297649,48.74391521,0.63999999,
114.359249,0.4298,1.0375,0.3360,55.75297649,48.74391521,0.63999999,
114.393053,0.4298,1.0375,0.3360,55.75297649,48.74391521,0.63999999,
114.401933,0.4298,1.0375,0.3360,55.75297649,48.74391521,0.63999999,
114.405492,1.2668,1.5246,1.6691,55.75297649,48.74391521,0.63999999,
114.406911,1.2668,1.5246,1.6691,55.75297649,48.74391521,0.63999999,
114.460082,1.2668,1.5246,1.6691,55.75297649,48.74391521,0.63999999,
114.461945,1.2668,1.5246,1.6691,55.75297649,48.74391521,0.63999999,
114.462781,1.2668,1.5246,1.6691,55.75297649,48.74391521,0.63999999,
114.477367,1.2668,1.5246,1.6691,55.75297649,48.74391521,0.63999999,
114.478452,-1.2633,1.0300,0.8286,55.75297649,48.74391521,0.63999999,
114.479708,-1.2633,1.0300,0.8286,55.75297649,48.74391521,0.63999999,
114.526140,-1.2633,1.0300,0.8286,55.75297649,48.74391521,0.63999999,
114.527186,-1.2633,1.0300,0.8286,55.75297649,48.74391521,0.63999999,
114.548655,-2.1642,-0.5671,2.2558,55.75297649,48.74391521,0.63999999,
114.550341,-2.1642,-0.5671,2.2558,55.75297649,48.74391521,0.63999999,
114.551391,-2.1642,-0.5671,2.2558,55.75297649,48.74391521,0.63999999,
114.593185,-2.1642,-0.5671,2.2558,55.75297649,48.74391521,0.63999999,
114.594436,-2.1642,-0.5671,2.2558,55.75297649,48.74391521,0.63999999,
114.601852,-2.1642,-0.5671,2.2558,55.75297649,48.74391521,0.63999999,
114.617499,-2.1642,-0.5671,2.2558,55.75297649,48.74391521,0.63999999,
114.618726,-0.2143,-0.4899,-0.0135,55.75297649,48.74391521,0.63999999,
114.620425,-0.2143,-0.4899,-0.0135,55.75297649,48.74391521,0.63999999,
114.659752,-0.2143,-0.4899,-0.0135,55.75297649,48.74391521,0.63999999,
114.661077,-0.2143,-0.4899,-0.0135,55.75297649,48.74391521,0.63999999,
114.687626,-0.2143,-0.4899,-0.0135,55.75297649,48.74391521,0.63999999,
114.688556,-0.2500,-0.6881,-0.8272,55.75297649,48.74391521,0.63999999,
114.689905,-0.2500,-0.6881,-0.8272,55.75297649,48.74391521,0.63999999,
114.726203,-0.2500,-0.6881,-0.8272,55.75297649,48.74391521,0.63999999,
114.727210,-0.2500,-0.6881,-0.8272,55.75297649,48.74391521,0.63999999,
114.758071,-0.2500,-0.6881,-0.8272,55.75297649,48.74391521,0.63999999,
114.759544,-0.2500,-0.6881,-0.8272,55.75297649,48.74391521,0.63999999,
114.760415,-0.4641,0.1557,-2.7605,55.75297649,48.74391521,0.63999999,
114.761794,-0.4641,0.1557,-2.7605,55.75297649,48.74391521,0.63999999,
114.792832,-0.4641,0.1557,-2.7605,55.75297649,48.74391521,0.63999999,
114.801655,-0.4641,0.1557,-2.7605,55.75297649,48.74391521,0.63999999,
114.828386,0.9183,0.6278,-0.7886,55.75297649,48.74391521,0.63999999,
114.830459,0.9183,0.6278,-0.7886,55.75297649,48.74391521,0.63999999,
114.831520,0.9183,0.6278,-0.7886,55.75297649,48.74391521,0.63999999,
114.859424,0.9183,0.6278,-0.7886,55.75297649,48.74391521,0.63999999,
114.860833,0.9183,0.6278,-0.7886,55.75297649,48.74391521,0.63999999,
114.899384,0.9183,0.6278,-0.7886,55.75297649,48.74391521,0.63999999,
114.901193,-0.7176,0.6621,-0.2470,55.75297649,48.74391521,0.63999999,
114.902652,-0.7176,0.6621,-0.2470,55.75297649,48.74391521,0.63999999,
114.903477,-0.7176,0.6621,-0.2470,55.75297649,48.74391521,0.63999999,
114.927143,-0.7176,0.6621,-0.2470,55.75297649,48.74391521,0.63999999,
114.968797,-0.7176,0.6621,-0.2470,55.75297649,48.74391521,0.63999999,
114.970232,-0.7176,0.6621,-0.2470,55.75297649,48.74391521,0.63999999,
114.971129,-0.1158,1.0085,1.4227,55.75297649,48.74391521,0.63999999,
114.972898,-0.1158,1.0085,1.4227,55.75297649,48.74391521,0.63999999,
114.992569,-0.1158,1.0085,1.4227,55.75297649,48.74391521,0.63999999,
115.002084,-0.1158,1.0085,1.4227,55.75297649,48.74391521,0.63999999,
115.038950,-0.1158,1.0085,1.4227,55.75297649,48.74391521,0.63999999,
115.040398,-0.1158,1.0085,1.4227,55.75297649,48.74391521,0.63999999,
115.041904,1.5523,0.5117,2.0041,55.75297649,48.74391521,0.63999999,
115.043403,1.5523,0.5117,2.0041,55.75297649,48.74391521,0.63999999,
115.059936,1.5523,0.5117,2.0041,55.75297649,48.74391521,0.63999999,
115.109490,1.5810,-1.3049,4.2885,55.75297649,48.74391521,0.63999999,
115.111280,1.5810,-1.3049,4.2885,55.75297649,48.74391521,0.63999999,
115.111916,1.5810,-1.3049,4.2885,55.75297649,48.74391521,0.63999999,
115.112509,1.5810,-1.3049,4.2885,55.75297649,48.74391521,0.63999999,
115.124894,1.5810,-1.3049,4.2885,55.75297649,48.74391521,0.63999999,
115.179936,1.5810,-1.3049,4.2885,55.75297649,48.74391521,0.63999999,
115.182084,2.1153,-0.6348,-2.6666,55.75297649,48.74391521,0.63999999,
115.183361,2.1153,-0.6348,-2.6666,55.75297649,48.74391521,0.63999999,
115.183962,2.1153,-0.6348,-2.6666,55.75297649,48.74391521,0.63999999,
115.184543,2.1153,-0.6348,-2.6666,55.75297649,48.74391521,0.63999999,
115.202593,2.1153,-0.6348,-2.6666,55.75297649,48.74391521,0.63999999,
115.250391,0.2813,-0.5382,-1.2989,55.75297649,48.74391521,0.63999999,
115.252942,0.2813,-0.5382,-1.2989,55.75297649,48.74391521,0.63999999,
115.253732,0.2813,-0.5382,-1.2989,55.75297649,48.74391521,0.63999999,
115.254400,0.2813,-0.5382,-1.2989,55.75297649,48.74391521,0.63999999,
115.320994,0.2813,-0.5382,-1.2989,55.75297649,48.74391521,0.63999999,
115.322764,0.2813,-0.5382,-1.2989,55.75297649,48.74391521,0.63999999,
115.323693,0.2813,-0.5382,-1.2989,55.75297649,48.74391521,0.63999999,
115.324549,0.2813,-0.5382,-1.2989,55.75297649,48.74391521,0.63999999,
115.325379,0.4388,-0.0983,-2.0444,55.75297649,48.74391521,0.63999999,
115.326692,0.4388,-0.0983,-2.0444,55.75297649,48.74391521,0.63999999,
115.358946,0.4388,-0.0983,-2.0444,55.75297649,48.74391521,0.63999999,
115.391580,0.4388,-0.0983,-2.0444,55.75297649,48.74391521,0.63999999,
115.393258,0.4388,-0.0983,-2.0444,55.75297649,48.74391521,0.63999999,
115.394158,0.2053,0.4137,-1.8279,55.75297649,48.74391521,0.63999999,
115.395534,0.2053,0.4137,-1.8279,55.75297649,48.74391521,0.63999999,
115.459588,0.2053,0.4137,-1.8279,55.75297649,48.74391521,0.63999999,
115.461123,0.2053,0.4137,-1.8279,55.75297649,48.74391521,0.63999999,
115.461739,0.2053,0.4137,-1.8279,55.75297649,48.74391521,0.63999999,
115.462387,0.2053,0.4137,-1.8279,55.75297649,48.74391521,0.63999999,
115.462898,-0.1626,1.1710,1.3199,55.75297649,48.74391521,0.63999999,
115.463825,-0.1626,1.1710,1.3199,55.75297649,48.74391521,0.63999999,
115.502987,-0.1626,1.1710,1.3199,55.75297649,48.74391521,0.63999999,
115.504553,-0.1626,1.1710,1.3199,55.75297649,48.74391521,0.63999999,
115.526056,-0.1626,1.1710,1.3199,55.75297649,48.74391521,0.63999999,
115.531334,0.0076,1.4316,1.5365,55.75297649,48.74391521,0.63999999,
115.532826,0.0076,1.4316,1.5365,55.75297649,48.74391521,0.63999999,
115.593279,0.0076,1.4316,1.5365,55.75297649,48.74391521,0.63999999,
115.594748,0.0076,1.4316,1.5365,55.75297649,48.74391521,0.63999999,
115.595364,0.0076,1.4316,1.5365,55.75297649,48.74391521,0.63999999,
115.602152,0.0076,1.4316,1.5365,55.75297649,48.74391521,0.63999999,
115.603528,-1.4602,0.5049,2.1618,55.75297649,48.74391521,0.63999999,
115.605539,-1.4602,0.5049,2.1618,55.75297649,48.74391521,0.63999999,
115.659466,-1.4602,0.5049,2.1618,55.75297649,48.74391521,0.63999999,
115.661330,-1.4602,0.5049,2.1618,55.75297649,48.74391521,0.63999999,
115.672125,-1.4602,0.5049,2.1618,55.75297649,48.74391521,0.63999999,
115.673600,-1.0419,-1.0535,1.2185,55.75297649,48.74391521,0.63999999,
115.674843,-1.0419,-1.0535,1.2185,55.75297649,48.74391521,0.63999999,
115.726311,-1.0419,-1.0535,1.2185,55.75297649,48.74391521,0.63999999,
115.727809,-1.0419,-1.0535,1.2185,55.75297649,48.74391521,0.63999999,
115.728449,-1.0419,-1.0535,1.2185,55.75297649,48.74391521,0.63999999,
115.742891,-0.5669,-0.9281,-0.5541,55.75297649,48.74391521,0.63999999,
115.745306,-0.5669,-0.9281,-0.5541,55.75297649,48.74391521,0.63999999,
115.746140,-0.5669,-0.9281,-0.5541,55.75297649,48.74391521,0.63999999,
115.792655,-0.5669,-0.9281,-0.5541,55.75297649,48.74391521,0.63999999,
115.793914,-0.5669,-0.9281,-0.5541,55.75297649,48.74391521,0.63999999,
115.812982,-0.9082,-0.5018,-1.3742,55.75297649,48.74391521,0.63999999,
115.815124,-0.9082,-0.5018,-1.3742,55.75297649,48.74391521,0.63999999,
115.815926,-0.9082,-0.5018,-1.3742,55.75297649,48.74391521,0.63999999,
115.860103,-0.9082,-0.5018,-1.3742,55.75297649,48.74391521,0.63999999,
115.861838,-0.9082,-0.5018,-1.3742,55.75297649,48.74391521,0.63999999,
115.874527,-0.9082,-0.5018,-1.3742,55.75297649,48.74391521,0.63999999,
115.883992,-0.9082,-0.5018,-1.3742,55.75297649,48.74391521,0.63999999,
115.885495,0.6266,0.2201,-1.6816,55.75297649,48.74391521,0.63999999,
115.886691,0.6266,0.2201,-1.6816,55.75297649,48.74391521,0.63999999,
115.927123,0.6266,0.2201,-1.6816,55.75297649,48.74391521,0.63999999,
115.928611,0.6266,0.2201,-1.6816,55.75297649,48.74391521,0.63999999,
115.954557,0.6266,0.2201,-1.6816,55.75297649,48.74391521,0.63999999,
115.956060,0.6266,0.2201,-1.6816,55.75297649,48.74391521,0.63999999,
115.956798,-0.0883,0.5105,-1.0369,55.75297649,48.74391521,0.63999999,
115.993376,-0.0883,0.5105,-1.0369,55.75297649,48.74391521,0.63999999,
115.995031,-0.0883,0.5105,-1.0369,55.75297649,48.74391521,0.63999999,
116.023886,-0.0883,0.5105,-1.0369,55.75297649,48.74391521,0.63999999,
116.025413,-0.0883,0.5105,-1.0369,55.75297649,48.74391521,0.63999999,
116.026093,-0.2034,0.8795,-0.0193,55.75297649,48.74391521,0.63999999,
116.027414,-0.2034,0.8795,-0.0193,55.75297649,48.74391521,0.63999999,
116.059563,-0.2034,0.8795,-0.0193,55.75297649,48.74391521,0.63999999,
116.094536,-0.2034,0.8795,-0.0193,55.75297649,48.74391521,0.63999999,
116.096031,-0.2034,0.8795,-0.0193,55.75297649,48.74391521,0.63999999,
116.096927,0.3659,0.9748,2.1444,55.75297649,48.74391521,0.63999999,
116.098308,0.3659,0.9748,2.1444,55.75297649,48.74391521,0.63999999,
116.109407,0.3659,0.9748,2.1444,55.75297649,48.74391521,0.63999999,
116.126305,0.3659,0.9748,2.1444,55.75297649,48.74391521,0.63999999,
116.171414,0.3659,0.9748,2.1444,55.75297649,48.74391521,0.63999999,
116.172633,0.3659,0.9748,2.1444,55.75451484,48.74504718,1.20000005,
116.173535,1.6304,-0.7469,4.2411,55.75451484,48.74504718,1.20000005,
116.174386,1.6304,-0.7469,4.2411,55.75451484,48.74504718,1.20000005,
116.193236,1.6304,-0.7469,4.2411,55.75451484,48.74504718,1.20000005,
116.235439,1.6304,-0.7469,4.2411,55.75451484,48.74504718,1.20000005,
116.237216,1.6304,-0.7469,4.2411,55.75451484,48.74504718,1.20000005,
116.237934,1.6304,-0.7469,4.2411,55.75451484,48.74504718,1.20000005,
116.238676,2.0345,-1.0357,0.1158,55.75451484,48.74504718,1.20000005,
116.259619,2.0345,-1.0357,0.1158,55.75451484,48.74504718,1.20000005,
116.282563,2.0345,-1.0357,0.1158,55.75451484,48.74504718,1.20000005,
116.286388,2.0345,-1.0357,0.1158,55.75451484,48.74504718,1.20000005,
116.305675,2.0345,-1.0357,0.1158,55.75451484,48.74504718,1.20000005,
116.307176,2.0345,-1.0357,0.1158,55.75451484,48.74504718,1.20000005,
116.308013,0.6616,-0.3840,-1.4503,55.75451484,48.74504718,1.20000005,
116.328335,0.6616,-0.3840,-1.4503,55.75451484,48.74504718,1.20000005,
116.359186,0.6616,-0.3840,-1.4503,55.75451484,48.74504718,1.20000005,
116.376176,-0.6228,-0.3053,-1.4511,55.75451484,48.74504718,1.20000005,
116.378179,-0.6228,-0.3053,-1.4511,55.75451484,48.74504718,1.20000005,
116.379087,-0.6228,-0.3053,-1.4511,55.75451484,48.74504718,1.20000005,
116.393686,-0.6228,-0.3053,-1.4511,55.75451484,48.74504718,1.20000005,
116.445383,-0.6228,-0.3053,-1.4511,55.75451484,48.74504718,1.20000005,
116.446598,-0.6228,-0.3053,-1.4511,55.75451484,48.74504718,1.20000005,
116.446972,-0.6228,-0.3053,-1.4511,55.75451484,48.74504718,1.20000005,
116.447307,-0.6228,-0.3053,-1.4511,55.75451484,48.74504718,1.20000005,
116.447644,-0.0251,0.0365,-2.4051,55.75451484,48.74504718,1.20000005,
116.516577,-0.0251,0.0365,-2.4051,55.75451484,48.74504718,1.20000005,
116.518134,-0.0251,0.0365,-2.4051,55.75451484,48.74504718,1.20000005,
116.518771,-0.0251,0.0365,-2.4051,55.75451484,48.74504718,1.20000005,
116.519368,-0.5950,0.6346,-0.6420,55.75451484,48.74504718,1.20000005,
116.520419,-0.5950,0.6346,-0.6420,55.75451484,48.74504718,1.20000005,
116.527327,-0.5950,0.6346,-0.6420,55.75451484,48.74504718,1.20000005,
116.587703,-0.5950,0.6346,-0.6420,55.75451484,48.74504718,1.20000005,
116.589187,0.1268,1.2791,1.1364,55.75451484,48.74504718,1.20000005,
116.590435,0.1268,1.2791,1.1364,55.75451484,48.74504718,1.20000005,
116.591430,0.1268,1.2791,1.1364,55.75451484,48.74504718,1.20000005,
116.592286,0.1268,1.2791,1.1364,55.75451484,48.74504718,1.20000005,
116.610266,0.1268,1.2791,1.1364,55.75451484,48.74504718,1.20000005,
116.658115,0.1268,1.2791,1.1364,55.75451484,48.74504718,1.20000005,
116.658929,0.1268,1.2791,1.1364,55.75451484,48.74504718,1.20000005,
116.659324,-1.1737,1.1607,1.6054,55.75451484,48.74504718,1.20000005,
116.659990,-1.1737,1.1607,1.6054,55.75451484,48.74504718,1.20000005,
116.726514,-1.1737,1.1607,1.6054,55.75451484,48.74504718,1.20000005,
116.728071,-1.1737,1.1607,1.6054,55.75451484,48.74504718,1.20000005,
116.728726,-1.1737,1.1607,1.6054,55.75451484,48.74504718,1.20000005,
116.729370,-1.1737,1.1607,1.6054,55.75451484,48.74504718,1.20000005,
116.729974,-0.9790,-0.3379,2.5140,55.75451484,48.74504718,1.20000005,
116.731375,-0.9790,-0.3379,2.5140,55.75451484,48.74504718,1.20000005,
116.793488,-0.9790,-0.3379,2.5140,55.75451484,48.74504718,1.20000005,
116.795057,-0.9790,-0.3379,2.5140,55.75451484,48.74504718,1.20000005,
116.795681,-0.9790,-0.3379,2.5140,55.75451484,48.74504718,1.20000005,
116.797430,-0.9790,-0.3379,2.5140,55.75451484,48.74504718,1.20000005,
116.798072,-0.8138,-1.4325,0.8529,55.75451484,48.74504718,1.20000005,
116.830108,-0.8138,-1.4325,0.8529,55.75451484,48.74504718,1.20000005,
116.831959,-0.8138,-1.4325,0.8529,55.75451484,48.74504718,1.20000005,
116.862105,-0.8138,-1.4325,0.8529,55.75451484,48.74504718,1.20000005,
116.868889,-0.8138,-1.4325,0.8529,55.75451484,48.74504718,1.20000005,
116.870365,-0.8138,-1.4325,0.8529,55.75451484,48.74504718,1.20000005,
116.871292,-0.9787,-0.8051,-1.6402,55.75451484,48.74504718,1.20000005,
116.903238,-0.9787,-0.8051,-1.6402,55.75451484,48.74504718,1.20000005,
116.927875,-0.9787,-0.8051,-1.6402,55.75451484,48.74504718,1.20000005,
116.939431,-0.9787,-0.8051,-1.6402,55.75451484,48.74504718,1.20000005,
116.941062,0.4022,-0.0855,-1.7372,55.75451484,48.74504718,1.20000005,
116.942369,0.4022,-0.0855,-1.7372,55.75451484,48.74504718,1.20000005,
116.993402,0.4022,-0.0855,-1.7372,55.75451484,48.74504718,1.20000005,
116.995123,0.4022,-0.0855,-1.7372,55.75451484,48.74504718,1.20000005,
116.995824,0.4022,-0.0855,-1.7372,55.75451484,48.74504718,1.20000005,
117.013026,0.4022,-0.0855,-1.7372,55.75451484,48.74504718,1.20000005,
117.015035,0.4022,-0.0855,-1.7372,55.75451484,48.74504718,1.20000005,
117.015896,0.4996,0.1348,-1.0444,55.75451484,48.74504718,1.20000005,
117.059956,0.4996,0.1348,-1.0444,55.75451484,48.74504718,1.20000005,
117.061776,0.4996,0.1348,-1.0444,55.75451484,48.74504718,1.20000005,
117.079444,-0.5646,0.4152,0.1120,55.75451484,48.74504718,1.20000005,
117.081906,-0.5646,0.4152,0.1120,55.75451484,48.74504718,1.20000005,
117.082755,-0.5646,0.4152,0.1120,55.75451484,48.74504718,1.20000005,
117.111205,-0.5646,0.4152,0.1120,55.75451484,48.74504718,1.20000005,
117.112732,-0.5646,0.4152,0.1120,55.75451484,48.74504718,1.20000005,
117.167199,-0.5646,0.4152,0.1120,55.75451484,48.74504718,1.20000005,
117.168641,-0.5646,0.4152,0.1120,55.75451484,48.74504718,1.20000005,
117.169407,0.0610,0.8997,1.8148,55.75451484,48.74504718,1.20000005,
117.170806,0.0610,0.8997,1.8148,55.75451484,48.74504718,1.20000005,
117.193102,0.0610,0.8997,1.8148,55.75451484,48.74504718,1.20000005,
117.194213,0.0610,0.8997,1.8148,55.75451930,48.74507213,1.05999994,
117.219053,0.0610,0.8997,1.8148,55.75451930,48.74507213,1.05999994,
117.220293,0.9366,0.1583,2.5972,55.75451930,48.74507213,1.05999994,
117.221500,0.9366,0.1583,2.5972,55.75451930,48.74507213,1.05999994,
117.259265,0.9366,0.1583,2.5972,55.75451930,48.74507213,1.05999994,
117.260831,0.9366,0.1583,2.5972,55.75451930,48.74507213,1.05999994,
117.291892,0.9366,0.1583,2.5972,55.75451930,48.74507213,1.05999994,
117.293355,1.6129,-1.0734,1.4685,55.75451930,48.74507213,1.05999994,
117.294585,1.6129,-1.0734,1.4685,55.75451930,48.74507213,1.05999994,
117.295243,1.6129,-1.0734,1.4685,55.75451930,48.74507213,1.05999994,
117.326216,1.6129,-1.0734,1.4685,55.75451930,48.74507213,1.05999994,
117.359949,1.6129,-1.0734,1.4685,55.75451930,48.74507213,1.05999994,
117.361706,1.6129,-1.0734,1.4685,55.75451930,48.74507213,1.05999994,
117.362478,1.2782,-0.8245,-1.0802,55.75451930,48.74507213,1.05999994,
117.363604,1.2782,-0.8245,-1.0802,55.75451930,48.74507213,1.05999994,
117.371840,1.2782,-0.8245,-1.0802,55.75451930,48.74507213,1.05999994,
117.393854,1.2782,-0.8245,-1.0802,55.75451930,48.74507213,1.05999994,
117.431590,-0.3304,-0.4443,-1.5536,55.75451930,48.74507213,1.05999994,
117.433660,-0.3304,-0.4443,-1.5536,55.75451930,48.74507213,1.05999994,
117.434302,-0.3304,-0.4443,-1.5536,55.75451930,48.74507213,1.05999994,
117.434890,-0.3304,-0.4443,-1.5536,55.75451930,48.74507213,1.05999994,
117.459355,-0.3304,-0.4443,-1.5536,55.75451930,48.74507213,1.05999994,
117.502634,-0.3304,-0.4443,-1.5536,55.75451930,48.74507213,1.05999994,
117.504405,-0.3304,-0.4443,-1.5536,55.75451930,48.74507213,1.05999994,
117.505345,-0.3304,-0.4443,-1.5536,55.75451930,48.74507213,1.05999994,
117.506205,0.3432,0.0672,-3.0679,55.75451930,48.74507213,1.05999994,
117.526222,0.3432,0.0672,-3.0679,55.75451930,48.74507213,1.05999994,
117.572667,0.3432,0.0672,-3.0679,55.75451930,48.74507213,1.05999994,
117.575495,0.3432,0.0672,-3.0679,55.75451930,48.74507213,1.05999994,
117.576985,0.3432,0.0672,-3.0679,55.75451930,48.74507213,1.05999994,
117.578427,-0.0541,0.1869,-1.4100,55.75451930,48.74507213,1.05999994,
117.580488,-0.0541,0.1869,-1.4100,55.75451930,48.74507213,1.05999994,
117.593571,-0.0541,0.1869,-1.4100,55.75451930,48.74507213,1.05999994,
117.641906,0.5031,1.0566,1.8097,55.75451930,48.74507213,1.05999994,
117.643863,0.5031,1.0566,1.8097,55.75451930,48.74507213,1.05999994,
117.644591,0.5031,1.0566,1.8097,55.75451930,48.74507213,1.05999994,
117.645666,0.5031,1.0566,1.8097,55.75451930,48.74507213,1.05999994,
117.659310,0.5031,1.0566,1.8097,55.75451930,48.74507213,1.05999994,
117.715129,0.5031,1.0566,1.8097,55.75451930,48.74507213,1.05999994,
117.717500,0.0866,1.8916,1.3111,55.75451930,48.74507213,1.05999994,
117.719516,0.0866,1.8916,1.3111,55.75451930,48.74507213,1.05999994,
117.721399,0.0866,1.8916,1.3111,55.75451930,48.74507213,1.05999994,
117.722976,0.0866,1.8916,1.3111,55.75451930,48.74507213,1.05999994,
117.782984,0.0866,1.8916,1.3111,55.75451930,48.74507213,1.05999994,
117.784593,0.0866,1.8916,1.3111,55.75451930,48.74507213,1.05999994,
117.785439,0.0866,1.8916,1.3111,55.75451930,48.74507213,1.05999994,
117.786212,0.0866,1.8916,1.3111,55.75451930,48.74507213,1.05999994,
117.786923,-1.4226,0.5808,3.2853,55.75451930,48.74507213,1.05999994,
117.792918,-1.4226,0.5808,3.2853,55.75451930,48.74507213,1.05999994,
117.853760,-0.6046,-0.8380,0.5308,55.75451930,48.74507213,1.05999994,
117.856025,-0.6046,-0.8380,0.5308,55.75451930,48.74507213,1.05999994,
117.856800,-0.6046,-0.8380,0.5308,55.75451930,48.74507213,1.05999994,
117.857464,-0.6046,-0.8380,0.5308,55.75451930,48.74507213,1.05999994,
117.858332,-0.6046,-0.8380,0.5308,55.75451930,48.74507213,1.05999994,
117.874508,-0.6046,-0.8380,0.5308,55.75451930,48.74507213,1.05999994,
117.923284,-0.6046,-0.8380,0.5308,55.75451930,48.74507213,1.05999994,
117.925185,-0.6046,-0.8380,0.5308,55.75451930,48.74507213,1.05999994,
117.925942,-0.6046,-0.8380,0.5308,55.75451930,48.74507213,1.05999994,
117.926604,-0.4313,-1.2559,-0.8981,55.75451930,48.74507213,1.05999994,
117.994733,-0.8617,-0.8904,-1.5865,55.75451930,48.74507213,1.05999994,
117.996776,-0.8617,-0.8904,-1.5865,55.75451930,48.74507213,1.05999994,
117.997470,-0.8617,-0.8904,-1.5865,55.75451930,48.74507213,1.05999994,
117.998183,-0.8617,-0.8904,-1.5865,55.75451930,48.74507213,1.05999994,
117.998888,-0.8617,-0.8904,-1.5865,55.75451930,48.74507213,1.05999994,
118.060621,-0.8617,-0.8904,-1.5865,55.75451930,48.74507213,1.05999994,
118.061573,-0.8617,-0.8904,-1.5865,55.75451930,48.74507213,1.05999994,
118.061968,-0.8617,-0.8904,-1.5865,55.75451930,48.74507213,1.05999994,
118.062392,-0.8617,-0.8904,-1.5865,55.75451930,48.74507213,1.05999994,
118.062883,0.2343,-0.2802,-1.5558,55.75451930,48.74507213,1.05999994,
118.063578,0.2343,-0.2802,-1.5558,55.75451930,48.74507213,1.05999994,
118.110761,0.2343,-0.2802,-1.5558,55.75451930,48.74507213,1.05999994,
118.112697,0.2343,-0.2802,-1.5558,55.75451930,48.74507213,1.05999994,
118.126496,0.2343,-0.2802,-1.5558,55.75451930,48.74507213,1.05999994,
118.138167,-0.0014,0.6186,-1.0383,55.75451930,48.74507213,1.05999994,
118.140131,-0.0014,0.6186,-1.0383,55.75451930,48.74507213,1.05999994,
118.141136,-0.0014,0.6186,-1.0383,55.75451930,48.74507213,1.05999994,
118.188890,-0.0014,0.6186,-1.0383,55.75451930,48.74507213,1.05999994,
118.191161,-0.0014,0.6186,-1.0383,55.75451930,48.74507213,1.05999994,
118.194760,-0.0014,0.6186,-1.0383,55.75451930,48.74507213,1.05999994,
118.204374,-0.0452,1.2652,1.0748,55.75451930,48.74507213,1.05999994,
118.206400,-0.0452,1.2652,1.0748,55.75451930,48.74507213,1.05999994,
118.214922,-0.0452,1.2652,1.0748,55.75451930,48.74507213,1.05999994,
118.235702,-0.0452,1.2652,1.0748,55.75451930,48.74507213,1.05999994,
118.255834,-0.0452,1.2652,1.0748,55.75451930,48.74507213,1.05999994,
118.274819,-0.0452,1.2652,1.0748,55.75451930,48.74507213,1.05999994,
118.276235,0.9619,0.8557,1.6287,55.75451930,48.74507213,1.05999994,
118.277710,0.9619,0.8557,1.6287,55.75451930,48.74507213,1.05999994,
118.299562,0.9619,0.8557,1.6287,55.75451930,48.74507213,1.05999994,
118.326188,0.9619,0.8557,1.6287,55.75451930,48.74507213,1.05999994,
118.345132,1.0884,-1.7749,5.7997,55.75451930,48.74507213,1.05999994,
118.351451,1.0884,-1.7749,5.7997,55.75451930,48.74507213,1.05999994,
118.352299,1.0884,-1.7749,5.7997,55.75451930,48.74507213,1.05999994,
118.361344,1.0884,-1.7749,5.7997,55.75451930,48.74507213,1.05999994,
118.386268,1.0884,-1.7749,5.7997,55.75451930,48.74507213,1.05999994,
118.405144,1.0884,-1.7749,5.7997,55.75451930,48.74507213,1.05999994,
118.415627,1.0884,-1.7749,5.7997,55.75451930,48.74507213,1.05999994,
118.417388,2.8955,-1.1388,-2.5592,55.75451930,48.74507213,1.05999994,
118.419179,2.8955,-1.1388,-2.5592,55.75451930,48.74507213,1.05999994,
118.447714,2.8955,-1.1388,-2.5592,55.75451930,48.74507213,1.05999994,
118.468309,2.8955,-1.1388,-2.5592,55.75451930,48.74507213,1.05999994,
118.485792,0.8696,-0.7241,-2.0825,55.75451930,48.74507213,1.05999994,
118.487541,0.8696,-0.7241,-2.0825,55.75451930,48.74507213,1.05999994,
118.488101,0.8696,-0.7241,-2.0825,55.75451930,48.74507213,1.05999994,
118.507467,0.8696,-0.7241,-2.0825,55.75451930,48.74507213,1.05999994,
118.527863,0.8696,-0.7241,-2.0825,55.75451930,48.74507213,1.05999994,
118.547566,0.8696,-0.7241,-2.0825,55.75451930,48.74507213,1.05999994,
118.556449,-0.6751,-0.3349,-1.2237,55.75451930,48.74507213,1.05999994,
118.557915,-0.6751,-0.3349,-1.2237,55.75451930,48.74507213,1.05999994,
118.558641,-0.6751,-0.3349,-1.2237,55.75451930,48.74507213,1.05999994,
118.576836,-0.6751,-0.3349,-1.2237,55.75451930,48.74507213,1.05999994,
118.611961,-0.6751,-0.3349,-1.2237,55.75451930,48.74507213,1.05999994,
118.617551,-0.6751,-0.3349,-1.2237,55.75451930,48.74507213,1.05999994,
118.626501,-0.6827,-0.1226,-1.5898,55.75451930,48.74507213,1.05999994,
118.628131,-0.6827,-0.1226,-1.5898,55.75451930,48.74507213,1.05999994,
118.637935,-0.6827,-0.1226,-1.5898,55.75451930,48.74507213,1.05999994,
118.657259,-0.6827,-0.1226,-1.5898,55.75451930,48.74507213,1.05999994,
118.677357,-0.6827,-0.1226,-1.5898,55.75451930,48.74507213,1.05999994,
118.696798,-0.6827,-0.1226,-1.5898,55.75451930,48.74507213,1.05999994,
118.698207,0.0389,1.2488,0.0627,55.75451930,48.74507213,1.05999994,
118.699345,0.0389,1.2488,0.0627,55.75451930,48.74507213,1.05999994,
118.728731,0.0389,1.2488,0.0627,55.75451930,48.74507213,1.05999994,
118.745135,0.0389,1.2488,0.0627,55.75451930,48.74507213,1.05999994,
118.764697,0.0389,1.2488,0.0627,55.75451930,48.74507213,1.05999994,
118.767510,0.1333,1.6022,1.5110,55.75451930,48.74507213,1.05999994,
118.768829,0.1333,1.6022,1.5110,55.75451930,48.74507213,1.05999994,
118.788952,0.1333,1.6022,1.5110,55.75451930,48.74507213,1.05999994,
118.810453,0.1333,1.6022,1.5110,55.75451930,48.74507213,1.05999994,
118.829668,0.1333,1.6022,1.5110,55.75451930,48.74507213,1.05999994,
118.837812,0.1333,1.6022,1.5110,55.75451930,48.74507213,1.05999994,
118.838693,-0.9934,1.5160,1.6595,55.75451930,48.74507213,1.05999994,
118.839828,-0.9934,1.5160,1.6595,55.75451930,48.74507213,1.05999994,
118.859902,-0.9934,1.5160,1.6595,55.75451930,48.74507213,1.05999994,
118.887049,-0.9934,1.5160,1.6595,55.75451930,48.74507213,1.05999994,
118.908810,-1.5051,-0.9849,3.0485,55.75451930,48.74507213,1.05999994,
118.910843,-1.5051,-0.9849,3.0485,55.75451930,48.74507213,1.05999994,
118.911644,-1.5051,-0.9849,3.0485,55.75451930,48.74507213,1.05999994,
118.926981,-1.5051,-0.9849,3.0485,55.75451930,48.74507213,1.05999994,
118.948774,-1.5051,-0.9849,3.0485,55.75451930,48.74507213,1.05999994,
118.965575,-1.5051,-0.9849,3.0485,55.75451930,48.74507213,1.05999994,
118.979158,-0.2650,-0.6075,-1.4753,55.75451930,48.74507213,1.05999994,
118.981307,-0.2650,-0.6075,-1.4753,55.75451930,48.74507213,1.05999994,
118.981857,-0.2650,-0.6075,-1.4753,55.75451930,48.74507213,1.05999994,
119.009335,-0.2650,-0.6075,-1.4753,55.75451930,48.74507213,1.05999994,
119.029265,-0.2650,-0.6075,-1.4753,55.75451930,48.74507213,1.05999994,
119.049370,-0.2650,-0.6075,-1.4753,55.75451930,48.74507213,1.05999994,
119.051473,-1.3653,-1.1514,-1.3007,55.75451930,48.74507213,1.05999994,
119.052601,-1.3653,-1.1514,-1.3007,55.75451930,48.74507213,1.05999994,
119.068837,-1.3653,-1.1514,-1.3007,55.75451930,48.74507213,1.05999994,
119.089493,-1.3653,-1.1514,-1.3007,55.75451930,48.74507213,1.05999994,
119.107463,-1.3653,-1.1514,-1.3007,55.75451930,48.74507213,1.05999994,
119.119050,-1.3653,-1.1514,-1.3007,55.75451930,48.74507213,1.05999994,
119.119933,-0.0543,-0.8012,-1.3371,55.75451930,48.74507213,1.05999994,
119.121503,-0.0543,-0.8012,-1.3371,55.75451930,48.74507213,1.05999994,
119.168161,-0.0543,-0.8012,-1.3371,55.75451930,48.74507213,1.05999994,
119.169578,-0.0543,-0.8012,-1.3371,55.75451930,48.74507213,1.05999994,
119.189148,0.7168,0.3745,-2.0699,55.75451930,48.74507213,1.05999994,
119.190702,0.7168,0.3745,-2.0699,55.75452259,48.74510254,1.26999998,
119.191723,0.7168,0.3745,-2.0699,55.75452259,48.74510254,1.26999998,
119.210135,0.7168,0.3745,-2.0699,55.75452259,48.74510254,1.26999998,
119.229966,0.7168,0.3745,-2.0699,55.75452259,48.74510254,1.26999998,
119.248754,0.7168,0.3745,-2.0699,55.75452259,48.74510254,1.26999998,
119.259415,0.2766,1.1636,0.2505,55.75452259,48.74510254,1.26999998,
119.261508,0.2766,1.1636,0.2505,55.75452259,48.74510254,1.26999998,
119.262072,0.2766,1.1636,0.2505,55.75452259,48.74510254,1.26999998,
119.289006,0.2766,1.1636,0.2505,55.75452259,48.74510254,1.26999998,
119.308264,0.2766,1.1636,0.2505,55.75452259,48.74510254,1.26999998,
119.326262,0.2766,1.1636,0.2505,55.75452259,48.74510254,1.26999998,
119.329108,0.2766,1.1636,0.2505,55.75452259,48.74510254,1.26999998,
119.329941,0.6243,1.4516,1.1328,55.75452259,48.74510254,1.26999998,
119.345594,0.6243,1.4516,1.1328,55.75452259,48.74510254,1.26999998,
119.365400,0.6243,1.4516,1.1328,55.75452259,48.74510254,1.26999998,
119.388411,0.6243,1.4516,1.1328,55.75452259,48.74510254,1.26999998,
119.402435,0.6673,-0.9978,5.1530,55.75452259,48.74510254,1.26999998,
119.404354,0.6673,-0.9978,5.1530,55.75452259,48.74510254,1.26999998,
119.405173,0.6673,-0.9978,5.1530,55.75452259,48.74510254,1.26999998,
119.427541,0.6673,-0.9978,5.1530,55.75452259,48.74510254,1.26999998,
119.448261,0.6673,-0.9978,5.1530,55.75452259,48.74510254,1.26999998,
119.470224,0.8671,-1.5056,-0.3935,55.75452259,48.74510254,1.26999998,
119.472455,0.8671,-1.5056,-0.3935,55.75452259,48.74510254,1.26999998,
119.473105,0.8671,-1.5056,-0.3935,55.75452259,48.74510254,1.26999998,
119.491278,0.8671,-1.5056,-0.3935,55.75452259,48.74510254,1.26999998,
119.506040,0.8671,-1.5056,-0.3935,55.75452259,48.74510254,1.26999998,
119.524922,0.8671,-1.5056,-0.3935,55.75452259,48.74510254,1.26999998,
119.543117,1.0953,-0.7047,-1.8932,55.75452259,48.74510254,1.26999998,
119.544649,1.0953,-0.7047,-1.8932,55.75452259,48.74510254,1.26999998,
119.545129,1.0953,-0.7047,-1.8932,55.75452259,48.74510254,1.26999998,
119.566807,1.0953,-0.7047,-1.8932,55.75452259,48.74510254,1.26999998,
119.585007,1.0953,-0.7047,-1.8932,55.75452259,48.74510254,1.26999998,
119.604429,1.0953,-0.7047,-1.8932,55.75452259,48.74510254,1.26999998,
119.613584,-0.9235,-0.4728,-1.4698,55.75452259,48.74510254,1.26999998,
119.615123,-0.9235,-0.4728,-1.4698,55.75452259,48.74510254,1.26999998,
119.625700,-0.9235,-0.4728,-1.4698,55.75452259,48.74510254,1.26999998,
119.643069,-0.9235,-0.4728,-1.4698,55.75452259,48.74510254,1.26999998,
119.675075,-0.9235,-0.4728,-1.4698,55.75452259,48.74510254,1.26999998,
119.683485,-0.9235,-0.4728,-1.4698,55.75452259,48.74510254,1.26999998,
119.685226,0.3958,0.3113,-2.7073,55.75452259,48.74510254,1.26999998,
119.686692,0.3958,0.3113,-2.7073,55.75452259,48.74510254,1.26999998,
119.707107,0.3958,0.3113,-2.7073,55.75452259,48.74510254,1.26999998,
119.727807,0.3958,0.3113,-2.7073,55.75452259,48.74510254,1.26999998,
119.748760,0.3958,0.3113,-2.7073,55.75452259,48.74510254,1.26999998,
119.751976,0.3958,0.3113,-2.7073,55.75452259,48.74510254,1.26999998,
119.752948,-0.1663,0.7669,-0.4008,55.75452259,48.74510254,1.26999998,
119.769910,-0.1663,0.7669,-0.4008,55.75452259,48.74510254,1.26999998,
119.789897,-0.1663,0.7669,-0.4008,55.75452259,48.74510254,1.26999998,
119.809510,-0.1663,0.7669,-0.4008,55.75452259,48.74510254,1.26999998,
119.822550,0.3171,1.1038,1.7070,55.75452259,48.74510254,1.26999998,
119.824127,0.3171,1.1038,1.7070,55.75452259,48.74510254,1.26999998,
119.824943,0.3171,1.1038,1.7070,55.75452259,48.74510254,1.26999998,
119.849260,0.3171,1.1038,1.7070,55.75452259,48.74510254,1.26999998,
119.867312,0.3171,1.1038,1.7070,55.75452259,48.74510254,1.26999998,
119.888382,0.3171,1.1038,1.7070,55.75452259,48.74510254,1.26999998,
119.892449,-0.5850,1.4893,1.0483,55.75452259,48.74510254,1.26999998,
119.894120,-0.5850,1.4893,1.0483,55.75452259,48.74510254,1.26999998,
119.907649,-0.5850,1.4893,1.0483,55.75452259,48.74510254,1.26999998,
119.922949,-0.5850,1.4893,1.0483,55.75452259,48.74510254,1.26999998,
119.950329,-0.5850,1.4893,1.0483,55.75452259,48.74510254,1.26999998,
119.964994,-0.5850,1.4893,1.0483,55.75452259,48.74510254,1.26999998,
119.966377,-1.9519,-0.5782,3.0029,55.75452259,48.74510254,1.26999998,
119.967738,-1.9519,-0.5782,3.0029,55.75452259,48.74510254,1.26999998,
119.983660,-1.9519,-0.5782,3.0029,55.75452259,48.74510254,1.26999998,
120.004256,-1.9519,-0.5782,3.0029,55.75452259,48.74510254,1.26999998,
120.032892,-1.9519,-0.5782,3.0029,55.75452259,48.74510254,1.26999998,
120.034553,-0.2732,-1.0266,0.2872,55.75452259,48.74510254,1.26999998,
120.036526,-0.2732,-1.0266,0.2872,55.75452259,48.74510254,1.26999998,
120.052737,-0.2732,-1.0266,0.2872,55.75452259,48.74510254,1.26999998,
120.073979,-0.2732,-1.0266,0.2872,55.75452259,48.74510254,1.26999998,
120.089127,-0.2732,-1.0266,0.2872,55.75452259,48.74510254,1.26999998,
120.103622,-0.5023,-0.5904,-1.5490,55.75452259,48.74510254,1.26999998,
120.105627,-0.5023,-0.5904,-1.5490,55.75452259,48.74510254,1.26999998,
120.106342,-0.5023,-0.5904,-1.5490,55.75452259,48.74510254,1.26999998,
120.129303,-0.5023,-0.5904,-1.5490,55.75452259,48.74510254,1.26999998,
120.149051,-0.5023,-0.5904,-1.5490,55.75452259,48.74510254,1.26999998,
120.171798,-0.5023,-0.5904,-1.5490,55.75452259,48.74510254,1.26999998,
120.174914,0.1524,-0.0709,-1.5367,55.75452259,48.74510254,1.26999998,
120.176758,0.1524,-0.0709,-1.5367,55.75452259,48.74510254,1.26999998,
120.187031,0.1524,-0.0709,-1.5367,55.75452259,48.74510254,1.26999998,
120.203756,0.1524,-0.0709,-1.5367,55.75452787,48.74511646,1.24000001,
120.228495,0.1524,-0.0709,-1.5367,55.75452787,48.74511646,1.24000001,
120.244730,0.4347,0.2481,-1.6193,55.75452787,48.74511646,1.24000001,
120.246912,0.4347,0.2481,-1.6193,55.75452787,48.74511646,1.24000001,
120.248611,0.4347,0.2481,-1.6193,55.75452787,48.74511646,1.24000001,
120.264981,0.4347,0.2481,-1.6193,55.75452787,48.74511646,1.24000001,
120.286313,0.4347,0.2481,-1.6193,55.75452787,48.74511646,1.24000001,
120.306448,0.4347,0.2481,-1.6193,55.75452787,48.74511646,1.24000001,
120.315077,-0.5724,0.6230,-0.1273,55.75452787,48.74511646,1.24000001,
120.315840,-0.5724,0.6230,-0.1273,55.75452787,48.74511646,1.24000001,
120.334078,-0.5724,0.6230,-0.1273,55.75452787,48.74511646,1.24000001,
120.347932,-0.5724,0.6230,-0.1273,55.75452787,48.74511646,1.24000001,
120.365637,-0.5724,0.6230,-0.1273,55.75452787,48.74511646,1.24000001,
120.385216,-0.3718,0.4387,1.5951,55.75452787,48.74511646,1.24000001,
120.386584,-0.3718,0.4387,1.5951,55.75452787,48.74511646,1.24000001,
120.386924,-0.3718,0.4387,1.5951,55.75452787,48.74511646,1.24000001,
120.448450,-0.3718,0.4387,1.5951,55.75452787,48.74511646,1.24000001,
120.450200,-0.3718,0.4387,1.5951,55.75452787,48.74511646,1.24000001,
120.451304,-0.3718,0.4387,1.5951,55.75452787,48.74511646,1.24000001,
120.455366,1.2866,-0.2309,3.2969,55.75452787,48.74511646,1.24000001,
120.457178,1.2866,-0.2309,3.2969,55.75452787,48.74511646,1.24000001,
120.501247,1.2866,-0.2309,3.2969,55.75452787,48.74511646,1.24000001,
120.502778,1.2866,-0.2309,3.2969,55.75452787,48.74511646,1.24000001,
120.513952,1.2866,-0.2309,3.2969,55.75452787,48.74511646,1.24000001,
120.526002,1.8116,-0.8605,1.1262,55.75452787,48.74511646,1.24000001,
120.528148,1.8116,-0.8605,1.1262,55.75452787,48.74511646,1.24000001,
120.528850,1.8116,-0.8605,1.1262,55.75452787,48.74511646,1.24000001,
120.550659,1.8116,-0.8605,1.1262,55.75452787,48.74511646,1.24000001,
120.581437,1.8116,-0.8605,1.1262,55.75452787,48.74511646,1.24000001,
120.587597,1.8116,-0.8605,1.1262,55.75452787,48.74511646,1.24000001,
120.596219,0.9864,-0.9503,-0.8810,55.75452787,48.74511646,1.24000001,
120.597901,0.9864,-0.9503,-0.8810,55.75452787,48.74511646,1.24000001,
120.611377,0.9864,-0.9503,-0.8810,55.75452787,48.74511646,1.24000001,
120.648034,0.9864,-0.9503,-0.8810,55.75452787,48.74511646,1.24000001,
120.649724,0.9864,-0.9503,-0.8810,55.75452787,48.74511646,1.24000001,
120.667039,0.9864,-0.9503,-0.8810,55.75452787,48.74511646,1.24000001,
120.668516,-0.4091,-0.3489,-1.8828,55.75452787,48.74511646,1.24000001,
120.669879,-0.4091,-0.3489,-1.8828,55.75452787,48.74511646,1.24000001,
120.701172,-0.4091,-0.3489,-1.8828,55.75452787,48.74511646,1.24000001,
120.714388,-0.4091,-0.3489,-1.8828,55.75452787,48.74511646,1.24000001,
120.737187,-0.4091,-0.3489,-1.8828,55.75452787,48.74511646,1.24000001,
120.738985,0.2435,0.1238,-2.6000,55.75452787,48.74511646,1.24000001,
120.740160,0.2435,0.1238,-2.6000,55.75452787,48.74511646,1.24000001,
120.752936,0.2435,0.1238,-2.6000,55.75452787,48.74511646,1.24000001,
120.780743,0.2435,0.1238,-2.6000,55.75452787,48.74511646,1.24000001,
120.808850,0.2435,0.1238,-2.6000,55.75452787,48.74511646,1.24000001,
120.810455,0.1586,0.3972,-1.1766,55.75452787,48.74511646,1.24000001,
120.812094,0.1586,0.3972,-1.1766,55.75452787,48.74511646,1.24000001,
120.812723,0.1586,0.3972,-1.1766,55.75452787,48.74511646,1.24000001,
120.849137,0.1586,0.3972,-1.1766,55.75452787,48.74511646,1.24000001,
120.850730,0.1586,0.3972,-1.1766,55.75452787,48.74511646,1.24000001,
120.873937,0.1586,0.3972,-1.1766,55.75452787,48.74511646,1.24000001,
120.877118,0.5942,1.0617,1.0635,55.75452787,48.74511646,1.24000001,
120.878438,0.5942,1.0617,1.0635,55.75452787,48.74511646,1.24000001,
120.914231,0.5942,1.0617,1.0635,55.75452787,48.74511646,1.24000001,
120.915855,0.5942,1.0617,1.0635,55.75452787,48.74511646,1.24000001,
120.949057,0.5942,1.0617,1.0635,55.75452787,48.74511646,1.24000001,
120.950689,0.5942,1.0617,1.0635,55.75452787,48.74511646,1.24000001,
120.951660,-0.5268,1.4394,1.1056,55.75452787,48.74511646,1.24000001,
120.952879,-0.5268,1.4394,1.1056,55.75452787,48.74511646,1.24000001,
120.981643,-0.5268,1.4394,1.1056,55.75452787,48.74511646,1.24000001,
120.993859,-0.5268,1.4394,1.1056,55.75452787,48.74511646,1.24000001,
121.012637,-0.5268,1.4394,1.1056,55.75452787,48.74511646,1.24000001,
121.018340,-1.5909,0.2184,3.2290,55.75452787,48.74511646,1.24000001,
121.019926,-1.5909,0.2184,3.2290,55.75452787,48.74511646,1.24000001,
121.033378,-1.5909,0.2184,3.2290,55.75452787,48.74511646,1.24000001,
121.051954,-1.5909,0.2184,3.2290,55.75452787,48.74511646,1.24000001,
121.068477,-1.5909,0.2184,3.2290,55.75452787,48.74511646,1.24000001,
121.089092,-1.5909,0.2184,3.2290,55.75452787,48.74511646,1.24000001,
121.090467,-0.6119,-0.8083,0.8458,55.75452787,48.74511646,1.24000001,
121.092037,-0.6119,-0.8083,0.8458,55.75452787,48.74511646,1.24000001,
121.110860,-0.6119,-0.8083,0.8458,55.75452787,48.74511646,1.24000001,
121.129911,-0.6119,-0.8083,0.8458,55.75452787,48.74511646,1.24000001,
121.152694,-0.6119,-0.8083,0.8458,55.75452787,48.74511646,1.24000001,
121.158398,-0.7774,-0.8674,-1.4322,55.75452787,48.74511646,1.24000001,
121.159719,-0.7774,-0.8674,-1.4322,55.75452787,48.74511646,1.24000001,
121.168651,-0.7774,-0.8674,-1.4322,55.75452787,48.74511646,1.24000001,
121.198331,-0.7774,-0.8674,-1.4322,55.75452787,48.74511646,1.24000001,
121.215795,-0.7774,-0.8674,-1.4322,55.75452787,48.74511646,1.24000001,
121.228296,-0.1467,-0.6178,-1.5706,55.75452787,48.74511646,1.24000001,
121.232743,-0.1467,-0.6178,-1.5706,55.75452787,48.74511646,1.24000001,
121.233572,-0.1467,-0.6178,-1.5706,55.75452787,48.74511646,1.24000001,
121.257883,-0.1467,-0.6178,-1.5706,55.75452787,48.74511646,1.24000001,
121.278251,-0.1467,-0.6178,-1.5706,55.75452787,48.74511646,1.24000001,
121.297924,-0.1467,-0.6178,-1.5706,55.75452787,48.74511646,1.24000001,
121.299307,0.8432,0.0856,-2.5646,55.75452787,48.74511646,1.24000001,
121.300831,0.8432,0.0856,-2.5646,55.75452787,48.74511646,1.24000001,
121.313951,0.8432,0.0856,-2.5646,55.75452787,48.74511646,1.24000001,
121.334949,0.8432,0.0856,-2.5646,55.75452787,48.74511646,1.24000001,
121.353018,0.8432,0.0856,-2.5646,55.75452787,48.74511646,1.24000001,
121.369870,0.2020,0.6615,-0.3690,55.75452787,48.74511646,1.24000001,
121.372317,0.2020,0.6615,-0.3690,55.75452787,48.74511646,1.24000001,
121.372861,0.2020,0.6615,-0.3690,55.75452787,48.74511646,1.24000001,
121.397102,0.2020,0.6615,-0.3690,55.75452787,48.74511646,1.24000001,
121.413931,0.2020,0.6615,-0.3690,55.75452787,48.74511646,1.24000001,
121.430014,0.2020,0.6615,-0.3690,55.75452787,48.74511646,1.24000001,
121.439541,0.0335,0.5118,1.5017,55.75452787,48.74511646,1.24000001,
121.440869,0.0335,0.5118,1.5017,55.75452787,48.74511646,1.24000001,
121.451054,0.0335,0.5118,1.5017,55.75452787,48.74511646,1.24000001,
121.472091,0.0335,0.5118,1.5017,55.75452787,48.74511646,1.24000001,
121.495368,0.0335,0.5118,1.5017,55.75452787,48.74511646,1.24000001,
121.510698,0.0335,0.5118,1.5017,55.75452787,48.74511646,1.24000001,
121.513056,0.7929,-0.1304,3.2765,55.75452787,48.74511646,1.24000001,
121.514126,0.7929,-0.1304,3.2765,55.75452787,48.74511646,1.24000001,
121.531522,0.7929,-0.1304,3.2765,55.75452787,48.74511646,1.24000001,
121.561218,0.7929,-0.1304,3.2765,55.75452787,48.74511646,1.24000001,
121.579196,0.7929,-0.1304,3.2765,55.75452787,48.74511646,1.24000001,
121.580954,1.0057,-1.3648,3.0779,55.75452787,48.74511646,1.24000001,
121.582157,1.0057,-1.3648,3.0779,55.75452787,48.74511646,1.24000001,
121.601687,1.0057,-1.3648,3.0779,55.75452787,48.74511646,1.24000001,
121.623445,1.0057,-1.3648,3.0779,55.75452787,48.74511646,1.24000001,
121.642874,1.0057,-1.3648,3.0779,55.75452787,48.74511646,1.24000001,
121.651281,1.0057,-1.3648,3.0779,55.75452787,48.74511646,1.24000001,
121.652211,1.0057,-1.3648,3.0779,55.75452787,48.74511646,1.24000001,
121.652903,1.7355,-0.6858,-1.7086,55.75452787,48.74511646,1.24000001,
121.677238,1.7355,-0.6858,-1.7086,55.75452787,48.74511646,1.24000001,
121.693350,1.7355,-0.6858,-1.7086,55.75452787,48.74511646,1.24000001,
121.711992,1.7355,-0.6858,-1.7086,55.75452787,48.74511646,1.24000001,
121.723136,-0.0802,-0.4962,-1.5609,55.75452787,48.74511646,1.24000001,
121.724863,-0.0802,-0.4962,-1.5609,55.75452787,48.74511646,1.24000001,
121.740827,-0.0802,-0.4962,-1.5609,55.75452787,48.74511646,1.24000001,
121.758094,-0.0802,-0.4962,-1.5609,55.75452787,48.74511646,1.24000001,
121.772822,-0.0802,-0.4962,-1.5609,55.75452787,48.74511646,1.24000001,
121.791125,-0.1251,-0.4239,-2.4303,55.75452787,48.74511646,1.24000001,
121.793030,-0.1251,-0.4239,-2.4303,55.75452787,48.74511646,1.24000001,
121.793467,-0.1251,-0.4239,-2.4303,55.75452787,48.74511646,1.24000001,
121.814959,-0.1251,-0.4239,-2.4303,55.75452787,48.74511646,1.24000001,
121.833711,-0.1251,-0.4239,-2.4303,55.75452787,48.74511646,1.24000001,
121.856378,-0.1251,-0.4239,-2.4303,55.75452787,48.74511646,1.24000001,
121.861982,0.1574,0.2888,-2.6268,55.75452787,48.74511646,1.24000001,
121.863800,0.1574,0.2888,-2.6268,55.75452787,48.74511646,1.24000001,
121.873457,0.1574,0.2888,-2.6268,55.75452787,48.74511646,1.24000001,
121.898440,0.1574,0.2888,-2.6268,55.75452787,48.74511646,1.24000001,
121.923529,0.1574,0.2888,-2.6268,55.75452787,48.74511646,1.24000001,
121.932278,0.1574,0.2888,-2.6268,55.75452787,48.74511646,1.24000001,
121.933207,0.5507,1.2180,0.8138,55.75452787,48.74511646,1.24000001,
121.934453,0.5507,1.2180,0.8138,55.75452787,48.74511646,1.24000001,
121.957432,0.5507,1.2180,0.8138,55.75452787,48.74511646,1.24000001,
121.976969,0.5507,1.2180,0.8138,55.75452787,48.74511646,1.24000001,
121.997274,0.5507,1.2180,0.8138,55.75452787,48.74511646,1.24000001,
122.004377,0.2819,1.6224,1.3242,55.75452787,48.74511646,1.24000001,
122.007173,0.2819,1.6224,1.3242,55.75452787,48.74511646,1.24000001,
122.023576,0.2819,1.6224,1.3242,55.75452787,48.74511646,1.24000001,
122.043480,0.2819,1.6224,1.3242,55.75452787,48.74511646,1.24000001,
122.066010,0.2819,1.6224,1.3242,55.75452787,48.74511646,1.24000001,
122.074076,0.2819,1.6224,1.3242,55.75452787,48.74511646,1.24000001,
122.074916,-1.9287,0.4160,3.9469,55.75452787,48.74511646,1.24000001,
122.076316,-1.9287,0.4160,3.9469,55.75452787,48.74511646,1.24000001,
122.093199,-1.9287,0.4160,3.9469,55.75452787,48.74511646,1.24000001,
122.116129,-1.9287,0.4160,3.9469,55.75452787,48.74511646,1.24000001,
122.138409,-1.9287,0.4160,3.9469,55.75452787,48.74511646,1.24000001,
122.148085,-1.3210,-0.3656,1.0288,55.75452787,48.74511646,1.24000001,
122.151001,-1.3210,-0.3656,1.0288,55.75452787,48.74511646,1.24000001,
122.157717,-1.3210,-0.3656,1.0288,55.75452787,48.74511646,1.24000001,
122.179111,-1.3210,-0.3656,1.0288,55.75452787,48.74511646,1.24000001,
122.195171,-1.3210,-0.3656,1.0288,55.75453693,48.74514460,1.20000005,
122.214948,-1.3210,-0.3656,1.0288,55.75453693,48.74514460,1.20000005,
122.216483,-1.0452,-0.5738,-0.5347,55.75453693,48.74514460,1.20000005,
122.217580,-1.0452,-0.5738,-0.5347,55.75453693,48.74514460,1.20000005,
122.244472,-1.0452,-0.5738,-0.5347,55.75453693,48.74514460,1.20000005,
122.265825,-1.0452,-0.5738,-0.5347,55.75453693,48.74514460,1.20000005,
122.284949,-1.0452,-0.5738,-0.5347,55.75453693,48.74514460,1.20000005,
122.286439,-1.2632,-0.8590,-1.8421,55.75453693,48.74514460,1.20000005,
122.287688,-1.2632,-0.8590,-1.8421,55.75453693,48.74514460,1.20000005,
122.308859,-1.2632,-0.8590,-1.8421,55.75453693,48.74514460,1.20000005,
122.316996,-1.2632,-0.8590,-1.8421,55.75453693,48.74514460,1.20000005,
122.335436,-1.2632,-0.8590,-1.8421,55.75453693,48.74514460,1.20000005,
122.353988,-1.2632,-0.8590,-1.8421,55.75453693,48.74514460,1.20000005,
122.355456,0.3275,-0.0051,-1.8511,55.75453693,48.74514460,1.20000005,
122.356772,0.3275,-0.0051,-1.8511,55.75453693,48.74514460,1.20000005,
122.377110,0.3275,-0.0051,-1.8511,55.75453693,48.74514460,1.20000005,
122.397683,0.3275,-0.0051,-1.8511,55.75453693,48.74514460,1.20000005,
122.416707,0.3275,-0.0051,-1.8511,55.75453693,48.74514460,1.20000005,
122.424679,0.1744,0.6476,-0.5104,55.75453693,48.74514460,1.20000005,
122.428843,0.1744,0.6476,-0.5104,55.75453693,48.74514460,1.20000005,
122.435085,0.1744,0.6476,-0.5104,55.75453693,48.74514460,1.20000005,
122.463870,0.1744,0.6476,-0.5104,55.75453693,48.74514460,1.20000005,
122.483162,0.1744,0.6476,-0.5104,55.75453693,48.74514460,1.20000005,
122.498164,0.1744,0.6476,-0.5104,55.75453693,48.74514460,1.20000005,
122.499963,0.2020,0.1004,1.4211,55.75453693,48.74514460,1.20000005,
122.502394,0.2020,0.1004,1.4211,55.75453693,48.74514460,1.20000005,
122.549321,0.2020,0.1004,1.4211,55.75453693,48.74514460,1.20000005,
122.551047,0.2020,0.1004,1.4211,55.75453693,48.74514460,1.20000005,
122.566227,0.2020,0.1004,1.4211,55.75453693,48.74514460,1.20000005,
122.568001,1.6098,0.2465,0.8138,55.75453693,48.74514460,1.20000005,
122.569091,1.6098,0.2465,0.8138,55.75453693,48.74514460,1.20000005,
122.611805,1.6098,0.2465,0.8138,55.75453693,48.74514460,1.20000005,
122.613454,1.6098,0.2465,0.8138,55.75453693,48.74514460,1.20000005,
122.636930,1.3171,-1.7251,3.4469,55.75453693,48.74514460,1.20000005,
122.638906,1.3171,-1.7251,3.4469,55.75453693,48.74514460,1.20000005,
122.639553,1.3171,-1.7251,3.4469,55.75453693,48.74514460,1.20000005,
122.641511,1.3171,-1.7251,3.4469,55.75453693,48.74514460,1.20000005,
122.681048,1.3171,-1.7251,3.4469,55.75453693,48.74514460,1.20000005,
122.682586,1.3171,-1.7251,3.4469,55.75453693,48.74514460,1.20000005,
122.705883,3.0050,-0.8370,-0.5851,55.75453693,48.74514460,1.20000005,
122.707837,3.0050,-0.8370,-0.5851,55.75453693,48.74514460,1.20000005,
122.708495,3.0050,-0.8370,-0.5851,55.75453693,48.74514460,1.20000005,
122.748765,3.0050,-0.8370,-0.5851,55.75453693,48.74514460,1.20000005,
122.750138,3.0050,-0.8370,-0.5851,55.75453693,48.74514460,1.20000005,
122.778365,3.0050,-0.8370,-0.5851,55.75453693,48.74514460,1.20000005,
122.780074,0.6381,-0.5169,-1.9065,55.75453693,48.74514460,1.20000005,
122.781616,0.6381,-0.5169,-1.9065,55.75453693,48.74514460,1.20000005,
122.782253,0.6381,-0.5169,-1.9065,55.75453693,48.74514460,1.20000005,
122.802211,0.6381,-0.5169,-1.9065,55.75453693,48.74514460,1.20000005,
122.847918,-0.1979,-0.2880,-3.0134,55.75453693,48.74514460,1.20000005,
122.850498,-0.1979,-0.2880,-3.0134,55.75453693,48.74514460,1.20000005,
122.851581,-0.1979,-0.2880,-3.0134,55.75453693,48.74514460,1.20000005,
122.852274,-0.1979,-0.2880,-3.0134,55.75453693,48.74514460,1.20000005,
122.860063,-0.1979,-0.2880,-3.0134,55.75453693,48.74514460,1.20000005,
122.882130,-0.1979,-0.2880,-3.0134,55.75453693,48.74514460,1.20000005,
122.901599,-0.1979,-0.2880,-3.0134,55.75453693,48.74514460,1.20000005,
122.918925,-0.1979,-0.2880,-3.0134,55.75453693,48.74514460,1.20000005,
122.920721,-0.1979,-0.2880,-3.0134,55.75453693,48.74514460,1.20000005,
122.921775,-0.5773,0.2454,-1.2899,55.75453693,48.74514460,1.20000005,
122.949063,-0.5773,0.2454,-1.2899,55.75453693,48.74514460,1.20000005,
122.988258,-0.5773,0.2454,-1.2899,55.75453693,48.74514460,1.20000005,
122.989825,-0.5773,0.2454,-1.2899,55.75453693,48.74514460,1.20000005,
122.990799,-0.5773,0.2454,-1.2899,55.75453693,48.74514460,1.20000005,
122.991432,-0.1401,1.3925,2.2988,55.75453693,48.74514460,1.20000005,
123.015077,-0.1401,1.3925,2.2988,55.75453693,48.74514460,1.20000005,
123.060182,-0.1401,1.3925,2.2988,55.75453693,48.74514460,1.20000005,
123.061385,0.4081,2.0215,1.3694,55.75453693,48.74514460,1.20000005,
123.062153,0.4081,2.0215,1.3694,55.75453693,48.74514460,1.20000005,
123.062543,0.4081,2.0215,1.3694,55.75453693,48.74514460,1.20000005,
123.062910,0.4081,2.0215,1.3694,55.75453693,48.74514460,1.20000005,
123.082621,0.4081,2.0215,1.3694,55.75453693,48.74514460,1.20000005,
123.112136,0.4081,2.0215,1.3694,55.75453693,48.74514460,1.20000005,
123.129966,0.4081,2.0215,1.3694,55.75453693,48.74514460,1.20000005,
123.132344,-2.6239,0.1085,3.5229,55.75453693,48.74514460,1.20000005,
123.134626,-2.6239,0.1085,3.5229,55.75453693,48.74514460,1.20000005,
123.149272,-2.6239,0.1085,3.5229,55.75453693,48.74514460,1.20000005,
123.200228,-2.6239,0.1085,3.5229,55.75453693,48.74514460,1.20000005,
123.202329,-2.6239,0.1085,3.5229,55.75453693,48.74514460,1.20000005,
123.203204,-2.6239,0.1085,3.5229,55.75453693,48.74514460,1.20000005,
123.203974,-2.6239,0.1085,3.5229,55.75453693,48.74514460,1.20000005,
123.204674,-1.3964,-1.6254,1.8475,55.75453693,48.74514460,1.20000005,
123.270788,0.1778,-1.0630,-2.6293,55.75453693,48.74514460,1.20000005,
123.273990,0.1778,-1.0630,-2.6293,55.75453693,48.74514460,1.20000005,
123.274862,0.1778,-1.0630,-2.6293,55.75453693,48.74514460,1.20000005,
123.275554,0.1778,-1.0630,-2.6293,55.75453693,48.74514460,1.20000005,
